subjectID	 scanner	 order	 block	 run	 trial	 onsettime	 ImageLeft	 ImageRight	 bidIndexLeft	 bidIndexRight	 IsleftGo	 Response	 PairType	 Outcome	 RT	 bidLeft	 bidRight	 
BMI_bf_103	 0	 1	 02	 2	 1	 2.033441e+00	 029.tif	 019.tif	 51	 50	 0	 i	 2	 1	 583.56	 0.27	 0.28	 
BMI_bf_103	 0	 1	 02	 2	 2	 7.033173e+00	 101.tif	 116.tif	 8	 18	 0	 u	 1	 0	 415.52	 0.79	 0.68	 
BMI_bf_103	 0	 1	 02	 2	 3	 1.503303e+01	 003.tif	 019.tif	 54	 50	 0	 i	 2	 1	 439.10	 0.23	 0.28	 
BMI_bf_103	 0	 1	 02	 2	 4	 1.803290e+01	 020.tif	 003.tif	 42	 54	 1	 i	 2	 0	 455.08	 0.34	 0.23	 
BMI_bf_103	 0	 1	 02	 2	 5	 2.503276e+01	 101.tif	 123.tif	 8	 10	 0	 u	 1	 0	 374.71	 0.79	 0.78	 
BMI_bf_103	 0	 1	 02	 2	 6	 2.803255e+01	 114.tif	 111.tif	 17	 7	 0	 u	 1	 0	 358.75	 0.69	 0.80	 
BMI_bf_103	 0	 1	 02	 2	 7	 3.903234e+01	 022.tif	 117.tif	 45	 43	 1	 i	 2	 0	 590.22	 0.31	 0.34	 
BMI_bf_103	 0	 1	 02	 2	 8	 4.303215e+01	 022.tif	 009.tif	 45	 40	 1	 i	 2	 0	 374.15	 0.31	 0.36	 
BMI_bf_103	 0	 1	 02	 2	 9	 4.703210e+01	 012.tif	 028.tif	 38	 26	 0	 i	 4	 1	 389.92	 0.38	 0.55	 
BMI_bf_103	 0	 1	 02	 2	 10	 5.003200e+01	 020.tif	 029.tif	 42	 51	 1	 u	 2	 1	 381.89	 0.34	 0.27	 
BMI_bf_103	 0	 1	 02	 2	 11	 5.303192e+01	 104.tif	 015.tif	 22	 20	 0	 u	 1	 0	 333.77	 0.62	 0.65	 
BMI_bf_103	 0	 1	 02	 2	 12	 5.803166e+01	 009.tif	 021.tif	 40	 53	 0	 u	 2	 0	 341.75	 0.36	 0.24	 
BMI_bf_103	 0	 1	 02	 2	 13	 6.203164e+01	 117.tif	 025.tif	 43	 39	 0	 i	 2	 1	 437.42	 0.34	 0.36	 
BMI_bf_103	 0	 1	 02	 2	 14	 7.103130e+01	 015.tif	 114.tif	 20	 17	 1	 i	 1	 0	 429.21	 0.65	 0.69	 
BMI_bf_103	 0	 1	 02	 2	 15	 7.403130e+01	 008.tif	 020.tif	 49	 42	 0	 i	 2	 1	 469.01	 0.28	 0.34	 
BMI_bf_103	 0	 1	 02	 2	 16	 7.903103e+01	 108.tif	 109.tif	 13	 11	 1	 i	 1	 0	 364.96	 0.75	 0.77	 
BMI_bf_103	 0	 1	 02	 2	 17	 8.503097e+01	 116.tif	 013.tif	 18	 14	 1	 u	 1	 1	 372.58	 0.68	 0.71	 
BMI_bf_103	 0	 1	 02	 2	 18	 8.803080e+01	 127.tif	 121.tif	 16	 21	 0	 u	 1	 0	 396.55	 0.70	 0.63	 
BMI_bf_103	 0	 1	 02	 2	 19	 9.303073e+01	 030.tif	 029.tif	 47	 51	 1	 u	 2	 1	 508.37	 0.29	 0.27	 
BMI_bf_103	 0	 1	 02	 2	 20	 9.703049e+01	 007.tif	 003.tif	 44	 54	 1	 u	 2	 1	 364.29	 0.33	 0.23	 
BMI_bf_103	 0	 1	 02	 2	 21	 1.020305e+02	 008.tif	 007.tif	 49	 44	 0	 i	 2	 1	 436.01	 0.28	 0.33	 
BMI_bf_103	 0	 1	 02	 2	 22	 1.070302e+02	 026.tif	 022.tif	 41	 45	 0	 i	 2	 1	 395.88	 0.36	 0.31	 
BMI_bf_103	 0	 1	 02	 2	 23	 1.100302e+02	 025.tif	 008.tif	 39	 49	 1	 i	 2	 0	 411.70	 0.36	 0.28	 
BMI_bf_103	 0	 1	 02	 2	 24	 1.130301e+02	 109.tif	 123.tif	 11	 10	 0	 i	 1	 1	 411.70	 0.77	 0.78	 
BMI_bf_103	 0	 1	 02	 2	 25	 1.250298e+02	 121.tif	 130.tif	 21	 9	 1	 i	 1	 0	 387.16	 0.63	 0.78	 
BMI_bf_103	 0	 1	 02	 2	 26	 1.290296e+02	 020.tif	 009.tif	 42	 40	 1	 u	 2	 1	 371.11	 0.34	 0.36	 
BMI_bf_103	 0	 1	 02	 2	 27	 1.320296e+02	 005.tif	 107.tif	 52	 46	 1	 u	 2	 1	 330.96	 0.25	 0.29	 
BMI_bf_103	 0	 1	 02	 2	 28	 1.390293e+02	 029.tif	 021.tif	 51	 53	 0	 u	 2	 0	 386.73	 0.27	 0.24	 
BMI_bf_103	 0	 1	 02	 2	 29	 1.420293e+02	 019.tif	 016.tif	 50	 48	 1	 u	 2	 1	 434.60	 0.28	 0.29	 
BMI_bf_103	 0	 1	 02	 2	 30	 1.490290e+02	 121.tif	 109.tif	 21	 11	 1	 u	 1	 1	 442.41	 0.63	 0.77	 
BMI_bf_103	 0	 1	 02	 2	 31	 1.540289e+02	 107.tif	 022.tif	 46	 45	 0	 i	 2	 1	 722.14	 0.29	 0.31	 
BMI_bf_103	 0	 1	 02	 2	 32	 1.580287e+02	 127.tif	 122.tif	 16	 12	 0	 i	 1	 1	 402.07	 0.70	 0.76	 
BMI_bf_103	 0	 1	 02	 2	 33	 1.630286e+02	 123.tif	 104.tif	 10	 22	 1	 i	 1	 0	 385.91	 0.78	 0.62	 
BMI_bf_103	 0	 1	 02	 2	 34	 1.690284e+02	 108.tif	 101.tif	 13	 8	 1	 i	 1	 0	 409.68	 0.75	 0.79	 
BMI_bf_103	 0	 1	 02	 2	 35	 1.730283e+02	 123.tif	 114.tif	 10	 17	 1	 i	 1	 0	 393.49	 0.78	 0.69	 
BMI_bf_103	 0	 1	 02	 2	 36	 1.760282e+02	 013.tif	 121.tif	 14	 21	 0	 u	 1	 0	 401.40	 0.71	 0.63	 
BMI_bf_103	 0	 1	 02	 2	 37	 1.790282e+02	 005.tif	 016.tif	 52	 48	 1	 u	 2	 1	 497.28	 0.25	 0.29	 
BMI_bf_103	 0	 1	 02	 2	 38	 1.820280e+02	 103.tif	 015.tif	 19	 20	 0	 u	 1	 0	 337.27	 0.65	 0.65	 
BMI_bf_103	 0	 1	 02	 2	 39	 1.860280e+02	 021.tif	 107.tif	 53	 46	 1	 u	 2	 1	 257.03	 0.24	 0.29	 
BMI_bf_103	 0	 1	 02	 2	 40	 1.900277e+02	 101.tif	 122.tif	 8	 12	 0	 u	 1	 0	 280.99	 0.79	 0.76	 
BMI_bf_103	 0	 1	 02	 2	 41	 1.960277e+02	 121.tif	 104.tif	 21	 22	 1	 i	 1	 0	 424.67	 0.63	 0.62	 
BMI_bf_103	 0	 1	 02	 2	 42	 2.050273e+02	 008.tif	 030.tif	 49	 47	 0	 i	 2	 1	 376.40	 0.28	 0.29	 
BMI_bf_103	 0	 1	 02	 2	 43	 2.080273e+02	 024.tif	 110.tif	 37	 25	 0	 i	 3	 1	 368.20	 0.41	 0.55	 
BMI_bf_103	 0	 1	 02	 2	 44	 2.120271e+02	 104.tif	 129.tif	 22	 15	 0	 i	 1	 1	 384.16	 0.62	 0.70	 
BMI_bf_103	 0	 1	 02	 2	 45	 2.170270e+02	 116.tif	 114.tif	 18	 17	 1	 i	 1	 0	 359.94	 0.68	 0.69	 
BMI_bf_103	 0	 1	 02	 2	 46	 2.200269e+02	 015.tif	 130.tif	 20	 9	 1	 u	 1	 1	 431.87	 0.65	 0.78	 
BMI_bf_103	 0	 1	 02	 2	 47	 2.240268e+02	 029.tif	 025.tif	 51	 39	 0	 u	 2	 0	 359.63	 0.27	 0.36	 
BMI_bf_103	 0	 1	 02	 2	 48	 2.340265e+02	 003.tif	 030.tif	 54	 47	 0	 u	 2	 0	 303.39	 0.23	 0.29	 
BMI_bf_103	 0	 1	 02	 2	 49	 2.370264e+02	 017.tif	 014.tif	 35	 23	 0	 i	 4	 1	 383.22	 0.42	 0.60	 
BMI_bf_103	 0	 1	 02	 2	 50	 2.470261e+02	 130.tif	 129.tif	 9	 15	 0	 i	 1	 1	 358.86	 0.78	 0.70	 
BMI_bf_103	 0	 1	 02	 2	 51	 2.520260e+02	 122.tif	 104.tif	 12	 22	 1	 i	 1	 0	 518.63	 0.76	 0.62	 
BMI_bf_103	 0	 1	 02	 2	 52	 2.570258e+02	 020.tif	 107.tif	 42	 46	 1	 u	 2	 1	 286.54	 0.34	 0.29	 
BMI_bf_103	 0	 1	 02	 2	 53	 2.620257e+02	 129.tif	 013.tif	 15	 14	 1	 u	 1	 1	 374.32	 0.70	 0.71	 
BMI_bf_103	 0	 1	 02	 2	 54	 2.650255e+02	 117.tif	 020.tif	 43	 42	 0	 x	 2	 999	 999000.00	 0.34	 0.34	 
BMI_bf_103	 0	 1	 02	 2	 55	 2.690255e+02	 009.tif	 005.tif	 40	 52	 0	 i	 2	 1	 374.04	 0.36	 0.25	 
BMI_bf_103	 0	 1	 02	 2	 56	 2.770252e+02	 106.tif	 120.tif	 24	 36	 1	 u	 3	 1	 317.82	 0.59	 0.42	 
BMI_bf_103	 0	 1	 02	 2	 57	 2.810251e+02	 114.tif	 122.tif	 17	 12	 0	 u	 1	 0	 733.63	 0.69	 0.76	 
BMI_bf_103	 0	 1	 02	 2	 58	 2.840250e+02	 111.tif	 104.tif	 7	 22	 1	 i	 1	 0	 469.63	 0.80	 0.62	 
BMI_bf_103	 0	 1	 02	 2	 59	 2.870249e+02	 108.tif	 127.tif	 13	 16	 1	 u	 1	 1	 373.39	 0.75	 0.70	 
BMI_bf_103	 0	 1	 02	 2	 60	 3.000245e+02	 116.tif	 104.tif	 18	 22	 1	 u	 1	 1	 901.00	 0.68	 0.62	 
BMI_bf_103	 0	 1	 02	 2	 61	 3.030244e+02	 009.tif	 007.tif	 40	 44	 0	 x	 2	 999	 999000.00	 0.36	 0.33	 
BMI_bf_103	 0	 1	 02	 2	 62	 3.070243e+02	 019.tif	 009.tif	 50	 40	 1	 x	 2	 999	 999000.00	 0.28	 0.36	 
BMI_bf_103	 0	 1	 02	 2	 63	 3.120242e+02	 130.tif	 123.tif	 9	 10	 0	 u	 1	 0	 396.53	 0.78	 0.78	 
BMI_bf_103	 0	 1	 02	 2	 64	 3.210239e+02	 007.tif	 016.tif	 44	 48	 1	 i	 2	 0	 396.30	 0.33	 0.29	 
BMI_bf_103	 0	 1	 02	 2	 65	 3.240238e+02	 019.tif	 026.tif	 50	 41	 1	 i	 2	 0	 428.17	 0.28	 0.36	 
BMI_bf_103	 0	 1	 02	 2	 66	 3.270237e+02	 114.tif	 121.tif	 17	 21	 0	 i	 1	 1	 532.07	 0.69	 0.63	 
BMI_bf_103	 0	 1	 02	 2	 67	 3.330236e+02	 008.tif	 022.tif	 49	 45	 0	 u	 2	 0	 603.78	 0.28	 0.31	 
BMI_bf_103	 0	 1	 02	 2	 68	 3.380234e+02	 123.tif	 013.tif	 10	 14	 1	 u	 1	 1	 347.63	 0.78	 0.71	 
