subjectID	 scanner	 order	 block	 run	 trial	 onsettime	 ImageLeft	 ImageRight	 bidIndexLeft	 bidIndexRight	 IsleftGo	 Response	 PairType	 Outcome	 RT	 bidLeft	 bidRight	 
BMI_bf_126	 0	 2	 02	 2	 1	 2.033469e+00	 107.tif	 029.tif	 52	 49	 0	 i	 2	 1	 1138.84	 0.24	 0.25	 
BMI_bf_126	 0	 2	 02	 2	 2	 7.033403e+00	 108.tif	 011.tif	 7	 17	 0	 u	 1	 0	 746.72	 0.72	 0.67	 
BMI_bf_126	 0	 2	 02	 2	 3	 1.503337e+01	 116.tif	 029.tif	 53	 49	 0	 i	 2	 1	 770.38	 0.23	 0.25	 
BMI_bf_126	 0	 2	 02	 2	 4	 1.803326e+01	 008.tif	 116.tif	 41	 53	 1	 u	 2	 1	 810.35	 0.37	 0.23	 
BMI_bf_126	 0	 2	 02	 2	 5	 2.503325e+01	 108.tif	 127.tif	 7	 9	 0	 u	 1	 0	 802.02	 0.72	 0.71	 
BMI_bf_126	 0	 2	 02	 2	 6	 2.803315e+01	 101.tif	 109.tif	 18	 8	 0	 i	 1	 1	 657.99	 0.67	 0.72	 
BMI_bf_126	 0	 2	 02	 2	 7	 3.903307e+01	 009.tif	 117.tif	 46	 44	 1	 u	 2	 1	 793.53	 0.32	 0.34	 
BMI_bf_126	 0	 2	 02	 2	 8	 4.303296e+01	 009.tif	 118.tif	 46	 39	 1	 i	 2	 0	 769.46	 0.32	 0.40	 
BMI_bf_126	 0	 2	 02	 2	 9	 4.703299e+01	 015.tif	 014.tif	 37	 25	 0	 i	 4	 1	 681.25	 0.40	 0.63	 
BMI_bf_126	 0	 2	 02	 2	 10	 5.003280e+01	 008.tif	 107.tif	 41	 52	 1	 u	 2	 1	 761.26	 0.37	 0.24	 
BMI_bf_126	 0	 2	 02	 2	 11	 5.303291e+01	 028.tif	 016.tif	 21	 19	 0	 u	 1	 0	 785.03	 0.65	 0.66	 
BMI_bf_126	 0	 2	 02	 2	 12	 5.803278e+01	 118.tif	 025.tif	 39	 54	 0	 i	 2	 1	 776.95	 0.40	 0.23	 
BMI_bf_126	 0	 2	 02	 2	 13	 6.203281e+01	 117.tif	 018.tif	 44	 40	 0	 i	 2	 1	 632.72	 0.34	 0.38	 
BMI_bf_126	 0	 2	 02	 2	 14	 7.103262e+01	 016.tif	 101.tif	 19	 18	 1	 i	 1	 0	 1360.43	 0.66	 0.67	 
BMI_bf_126	 0	 2	 02	 2	 15	 7.403266e+01	 006.tif	 008.tif	 50	 41	 0	 i	 2	 1	 1144.27	 0.25	 0.37	 
BMI_bf_126	 0	 2	 02	 2	 16	 7.903253e+01	 013.tif	 020.tif	 14	 12	 1	 i	 1	 0	 1408.15	 0.69	 0.70	 
BMI_bf_126	 0	 2	 02	 2	 17	 8.503252e+01	 011.tif	 010.tif	 17	 13	 1	 i	 1	 0	 911.90	 0.67	 0.69	 
BMI_bf_126	 0	 2	 02	 2	 18	 8.803242e+01	 002.tif	 111.tif	 15	 22	 0	 i	 1	 1	 927.85	 0.68	 0.65	 
BMI_bf_126	 0	 2	 02	 2	 19	 9.303243e+01	 027.tif	 107.tif	 48	 52	 1	 u	 2	 1	 791.64	 0.27	 0.24	 
BMI_bf_126	 0	 2	 02	 2	 20	 9.703230e+01	 129.tif	 116.tif	 43	 53	 1	 u	 2	 1	 799.56	 0.34	 0.23	 
BMI_bf_126	 0	 2	 02	 2	 21	 1.020323e+02	 006.tif	 129.tif	 50	 43	 0	 i	 2	 1	 607.30	 0.25	 0.34	 
BMI_bf_126	 0	 2	 02	 2	 22	 1.070322e+02	 122.tif	 009.tif	 42	 46	 0	 i	 2	 1	 1055.18	 0.36	 0.32	 
BMI_bf_126	 0	 2	 02	 2	 23	 1.100322e+02	 018.tif	 006.tif	 40	 50	 1	 u	 2	 1	 655.02	 0.38	 0.25	 
BMI_bf_126	 0	 2	 02	 2	 24	 1.130321e+02	 020.tif	 127.tif	 12	 9	 0	 i	 1	 1	 638.94	 0.70	 0.71	 
BMI_bf_126	 0	 2	 02	 2	 25	 1.250320e+02	 111.tif	 007.tif	 22	 10	 1	 u	 1	 1	 846.47	 0.65	 0.71	 
BMI_bf_126	 0	 2	 02	 2	 26	 1.290319e+02	 008.tif	 118.tif	 41	 39	 1	 i	 2	 0	 766.43	 0.37	 0.40	 
BMI_bf_126	 0	 2	 02	 2	 27	 1.320320e+02	 128.tif	 120.tif	 51	 45	 1	 u	 2	 1	 726.23	 0.24	 0.34	 
BMI_bf_126	 0	 2	 02	 2	 28	 1.390318e+02	 107.tif	 025.tif	 52	 54	 0	 i	 2	 1	 670.06	 0.24	 0.23	 
BMI_bf_126	 0	 2	 02	 2	 29	 1.420318e+02	 029.tif	 003.tif	 49	 47	 1	 u	 2	 1	 925.86	 0.25	 0.27	 
BMI_bf_126	 0	 2	 02	 2	 30	 1.490317e+02	 111.tif	 020.tif	 22	 12	 1	 i	 1	 0	 805.68	 0.65	 0.70	 
BMI_bf_126	 0	 2	 02	 2	 31	 1.540316e+02	 120.tif	 009.tif	 45	 46	 0	 i	 2	 1	 1173.49	 0.34	 0.32	 
BMI_bf_126	 0	 2	 02	 2	 32	 1.580316e+02	 002.tif	 024.tif	 15	 11	 0	 u	 1	 0	 853.38	 0.68	 0.71	 
BMI_bf_126	 0	 2	 02	 2	 33	 1.630316e+02	 127.tif	 028.tif	 9	 21	 1	 u	 1	 1	 725.13	 0.71	 0.65	 
BMI_bf_126	 0	 2	 02	 2	 34	 1.690314e+02	 013.tif	 108.tif	 14	 7	 1	 i	 1	 0	 669.00	 0.69	 0.72	 
BMI_bf_126	 0	 2	 02	 2	 35	 1.730315e+02	 127.tif	 101.tif	 9	 18	 1	 i	 1	 0	 860.74	 0.71	 0.67	 
BMI_bf_126	 0	 2	 02	 2	 36	 1.760313e+02	 010.tif	 111.tif	 13	 22	 0	 i	 1	 1	 804.74	 0.69	 0.65	 
BMI_bf_126	 0	 2	 02	 2	 37	 1.790314e+02	 128.tif	 003.tif	 51	 47	 1	 i	 2	 0	 1140.52	 0.24	 0.27	 
BMI_bf_126	 0	 2	 02	 2	 38	 1.820313e+02	 022.tif	 016.tif	 20	 19	 0	 u	 1	 0	 884.53	 0.66	 0.66	 
BMI_bf_126	 0	 2	 02	 2	 39	 1.860313e+02	 025.tif	 120.tif	 54	 45	 1	 u	 2	 1	 860.31	 0.23	 0.34	 
BMI_bf_126	 0	 2	 02	 2	 40	 1.900312e+02	 108.tif	 024.tif	 7	 11	 0	 u	 1	 0	 1116.22	 0.72	 0.71	 
BMI_bf_126	 0	 2	 02	 2	 41	 1.960312e+02	 111.tif	 028.tif	 22	 21	 1	 u	 1	 1	 819.95	 0.65	 0.65	 
BMI_bf_126	 0	 2	 02	 2	 42	 2.050309e+02	 006.tif	 027.tif	 50	 48	 0	 i	 2	 1	 779.79	 0.25	 0.27	 
BMI_bf_126	 0	 2	 02	 2	 43	 2.080308e+02	 021.tif	 030.tif	 38	 26	 0	 u	 3	 0	 1051.72	 0.40	 0.62	 
BMI_bf_126	 0	 2	 02	 2	 44	 2.120309e+02	 028.tif	 113.tif	 21	 16	 0	 i	 1	 1	 619.46	 0.65	 0.67	 
BMI_bf_126	 0	 2	 02	 2	 45	 2.170309e+02	 011.tif	 101.tif	 17	 18	 1	 i	 1	 0	 539.23	 0.67	 0.67	 
BMI_bf_126	 0	 2	 02	 2	 46	 2.200308e+02	 016.tif	 007.tif	 19	 10	 1	 u	 1	 1	 835.17	 0.66	 0.71	 
BMI_bf_126	 0	 2	 02	 2	 47	 2.240308e+02	 107.tif	 018.tif	 52	 40	 0	 i	 2	 1	 706.97	 0.24	 0.38	 
BMI_bf_126	 0	 2	 02	 2	 48	 2.340306e+02	 116.tif	 027.tif	 53	 48	 0	 i	 2	 1	 1130.68	 0.23	 0.27	 
BMI_bf_126	 0	 2	 02	 2	 49	 2.370306e+02	 103.tif	 115.tif	 36	 24	 0	 i	 4	 1	 778.57	 0.41	 0.64	 
BMI_bf_126	 0	 2	 02	 2	 50	 2.470303e+02	 007.tif	 113.tif	 10	 16	 0	 i	 1	 1	 810.38	 0.71	 0.67	 
BMI_bf_126	 0	 2	 02	 2	 51	 2.520305e+02	 024.tif	 028.tif	 11	 21	 1	 i	 1	 0	 1145.95	 0.71	 0.65	 
BMI_bf_126	 0	 2	 02	 2	 52	 2.570304e+02	 008.tif	 120.tif	 41	 45	 1	 u	 2	 1	 833.87	 0.37	 0.34	 
BMI_bf_126	 0	 2	 02	 2	 53	 2.620304e+02	 113.tif	 010.tif	 16	 13	 1	 x	 1	 999	 999000.00	 0.67	 0.69	 
BMI_bf_126	 0	 2	 02	 2	 54	 2.650303e+02	 117.tif	 008.tif	 44	 41	 0	 i	 2	 1	 633.59	 0.34	 0.37	 
BMI_bf_126	 0	 2	 02	 2	 55	 2.690303e+02	 118.tif	 128.tif	 39	 51	 0	 u	 2	 0	 817.37	 0.40	 0.24	 
BMI_bf_126	 0	 2	 02	 2	 56	 2.770301e+02	 110.tif	 123.tif	 23	 35	 1	 i	 3	 0	 657.16	 0.65	 0.44	 
BMI_bf_126	 0	 2	 02	 2	 57	 2.810301e+02	 101.tif	 024.tif	 18	 11	 0	 i	 1	 1	 760.89	 0.67	 0.71	 
BMI_bf_126	 0	 2	 02	 2	 58	 2.840301e+02	 109.tif	 028.tif	 8	 21	 1	 u	 1	 1	 648.89	 0.72	 0.65	 
BMI_bf_126	 0	 2	 02	 2	 59	 2.870301e+02	 013.tif	 002.tif	 14	 15	 1	 i	 1	 0	 656.74	 0.69	 0.68	 
BMI_bf_126	 0	 2	 02	 2	 60	 3.000299e+02	 011.tif	 028.tif	 17	 21	 1	 u	 1	 1	 840.26	 0.67	 0.65	 
BMI_bf_126	 0	 2	 02	 2	 61	 3.030299e+02	 118.tif	 129.tif	 39	 43	 0	 u	 2	 0	 1112.12	 0.40	 0.34	 
BMI_bf_126	 0	 2	 02	 2	 62	 3.070298e+02	 029.tif	 118.tif	 49	 39	 1	 i	 2	 0	 856.11	 0.25	 0.40	 
BMI_bf_126	 0	 2	 02	 2	 63	 3.120298e+02	 007.tif	 127.tif	 10	 9	 0	 i	 1	 1	 911.81	 0.71	 0.71	 
BMI_bf_126	 0	 2	 02	 2	 64	 3.210295e+02	 129.tif	 003.tif	 43	 47	 1	 u	 2	 1	 935.64	 0.34	 0.27	 
BMI_bf_126	 0	 2	 02	 2	 65	 3.240297e+02	 029.tif	 122.tif	 49	 42	 1	 i	 2	 0	 807.35	 0.25	 0.36	 
BMI_bf_126	 0	 2	 02	 2	 66	 3.270295e+02	 101.tif	 111.tif	 18	 22	 0	 u	 1	 0	 1151.38	 0.67	 0.65	 
BMI_bf_126	 0	 2	 02	 2	 67	 3.330295e+02	 006.tif	 009.tif	 50	 46	 0	 i	 2	 1	 1015.09	 0.25	 0.32	 
BMI_bf_126	 0	 2	 02	 2	 68	 3.380294e+02	 127.tif	 010.tif	 9	 13	 1	 i	 1	 0	 766.93	 0.71	 0.69	 
