subjectID	 scanner	 order	 block	 run	 trial	 onsettime	 ImageLeft	 ImageRight	 bidIndexLeft	 bidIndexRight	 IsleftGo	 Response	 PairType	 Outcome	 RT	 bidLeft	 bidRight	 
BMI_bf_128	 0	 2	 01	 2	 1	 2.033395e+00	 014.tif	 005.tif	 41	 42	 1	 i	 2	 0	 1127.46	 0.37	 0.37	 
BMI_bf_128	 0	 2	 01	 2	 2	 5.033375e+00	 025.tif	 121.tif	 15	 19	 0	 u	 1	 0	 751.31	 0.68	 0.61	 
BMI_bf_128	 0	 2	 01	 2	 3	 9.033159e+00	 106.tif	 128.tif	 17	 10	 1	 i	 1	 0	 535.26	 0.66	 0.77	 
BMI_bf_128	 0	 2	 01	 2	 4	 1.503302e+01	 106.tif	 024.tif	 17	 20	 1	 i	 1	 0	 726.96	 0.66	 0.60	 
BMI_bf_128	 0	 2	 01	 2	 5	 2.103273e+01	 007.tif	 028.tif	 26	 38	 1	 i	 3	 0	 790.81	 0.56	 0.38	 
BMI_bf_128	 0	 2	 01	 2	 6	 2.603262e+01	 024.tif	 123.tif	 20	 11	 0	 i	 1	 1	 598.54	 0.60	 0.73	 
BMI_bf_128	 0	 2	 01	 2	 7	 3.003240e+01	 115.tif	 005.tif	 48	 42	 1	 i	 2	 0	 1062.45	 0.33	 0.37	 
BMI_bf_128	 0	 2	 01	 2	 8	 3.503229e+01	 024.tif	 109.tif	 20	 9	 0	 i	 1	 1	 582.27	 0.60	 0.78	 
BMI_bf_128	 0	 2	 01	 2	 9	 4.103202e+01	 112.tif	 016.tif	 43	 52	 1	 i	 2	 0	 1118.06	 0.36	 0.29	 
BMI_bf_128	 0	 2	 01	 2	 10	 4.403198e+01	 123.tif	 110.tif	 11	 12	 1	 i	 1	 0	 765.92	 0.73	 0.72	 
BMI_bf_128	 0	 2	 01	 2	 11	 4.703179e+01	 016.tif	 004.tif	 52	 49	 0	 i	 2	 1	 1205.87	 0.29	 0.32	 
BMI_bf_128	 0	 2	 01	 2	 12	 5.103173e+01	 003.tif	 014.tif	 50	 41	 0	 i	 2	 1	 1109.66	 0.30	 0.37	 
BMI_bf_128	 0	 2	 01	 2	 13	 5.603148e+01	 106.tif	 101.tif	 17	 18	 1	 i	 1	 0	 757.57	 0.66	 0.64	 
BMI_bf_128	 0	 2	 01	 2	 14	 5.903145e+01	 112.tif	 107.tif	 43	 45	 1	 u	 2	 1	 1245.37	 0.36	 0.34	 
BMI_bf_128	 0	 2	 01	 2	 15	 6.203125e+01	 116.tif	 024.tif	 14	 20	 1	 i	 1	 0	 837.37	 0.70	 0.60	 
BMI_bf_128	 0	 2	 01	 2	 16	 6.603119e+01	 120.tif	 117.tif	 46	 44	 1	 i	 2	 0	 509.17	 0.34	 0.35	 
BMI_bf_128	 0	 2	 01	 2	 17	 8.003061e+01	 128.tif	 122.tif	 10	 22	 0	 i	 1	 1	 572.75	 0.77	 0.59	 
BMI_bf_128	 0	 2	 01	 2	 18	 8.803041e+01	 130.tif	 116.tif	 7	 14	 0	 u	 1	 0	 764.36	 0.80	 0.70	 
BMI_bf_128	 0	 2	 01	 2	 19	 9.403012e+01	 119.tif	 014.tif	 47	 41	 0	 u	 2	 0	 1020.20	 0.34	 0.37	 
BMI_bf_128	 0	 2	 01	 2	 20	 9.703008e+01	 110.tif	 106.tif	 12	 17	 0	 u	 1	 0	 1076.03	 0.72	 0.66	 
BMI_bf_128	 0	 2	 01	 2	 21	 1.010299e+02	 015.tif	 009.tif	 37	 25	 0	 i	 4	 1	 883.97	 0.39	 0.57	 
BMI_bf_128	 0	 2	 01	 2	 22	 1.070297e+02	 115.tif	 107.tif	 48	 45	 1	 u	 2	 1	 1011.68	 0.33	 0.34	 
BMI_bf_128	 0	 2	 01	 2	 23	 1.100295e+02	 014.tif	 017.tif	 41	 39	 1	 u	 2	 1	 891.66	 0.37	 0.38	 
BMI_bf_128	 0	 2	 01	 2	 24	 1.130295e+02	 003.tif	 115.tif	 50	 48	 0	 i	 2	 1	 1083.46	 0.30	 0.33	 
BMI_bf_128	 0	 2	 01	 2	 25	 1.160293e+02	 115.tif	 016.tif	 48	 52	 1	 u	 2	 1	 739.45	 0.33	 0.29	 
BMI_bf_128	 0	 2	 01	 2	 26	 1.230292e+02	 115.tif	 026.tif	 48	 53	 1	 u	 2	 1	 955.08	 0.33	 0.28	 
BMI_bf_128	 0	 2	 01	 2	 27	 1.260291e+02	 005.tif	 112.tif	 42	 43	 0	 i	 2	 1	 466.97	 0.37	 0.36	 
BMI_bf_128	 0	 2	 01	 2	 28	 1.290289e+02	 125.tif	 009.tif	 36	 25	 0	 u	 4	 0	 778.91	 0.39	 0.57	 
BMI_bf_128	 0	 2	 01	 2	 29	 1.340287e+02	 017.tif	 112.tif	 39	 43	 0	 i	 2	 1	 770.80	 0.38	 0.36	 
BMI_bf_128	 0	 2	 01	 2	 30	 1.370285e+02	 027.tif	 003.tif	 51	 50	 1	 i	 2	 0	 722.80	 0.30	 0.30	 
BMI_bf_128	 0	 2	 01	 2	 31	 1.410284e+02	 112.tif	 026.tif	 43	 53	 1	 u	 2	 1	 522.57	 0.36	 0.28	 
BMI_bf_128	 0	 2	 01	 2	 32	 1.470283e+02	 123.tif	 025.tif	 11	 15	 1	 i	 1	 0	 322.31	 0.73	 0.68	 
BMI_bf_128	 0	 2	 01	 2	 33	 1.500282e+02	 121.tif	 024.tif	 19	 20	 1	 u	 1	 1	 666.15	 0.61	 0.60	 
BMI_bf_128	 0	 2	 01	 2	 34	 1.570279e+02	 120.tif	 026.tif	 46	 53	 1	 u	 2	 1	 777.90	 0.34	 0.28	 
BMI_bf_128	 0	 2	 01	 2	 35	 1.620277e+02	 106.tif	 127.tif	 17	 13	 1	 i	 1	 0	 1105.79	 0.66	 0.71	 
BMI_bf_128	 0	 2	 01	 2	 36	 1.660276e+02	 127.tif	 123.tif	 13	 11	 0	 i	 1	 1	 961.60	 0.71	 0.73	 
BMI_bf_128	 0	 2	 01	 2	 37	 1.690274e+02	 025.tif	 118.tif	 15	 16	 0	 i	 1	 1	 1305.54	 0.68	 0.67	 
BMI_bf_128	 0	 2	 01	 2	 38	 1.720274e+02	 107.tif	 001.tif	 45	 54	 0	 u	 2	 0	 1049.38	 0.34	 0.27	 
BMI_bf_128	 0	 2	 01	 2	 39	 1.820270e+02	 025.tif	 109.tif	 15	 9	 0	 u	 1	 0	 1049.10	 0.68	 0.78	 
BMI_bf_128	 0	 2	 01	 2	 40	 1.930267e+02	 117.tif	 002.tif	 44	 40	 0	 i	 2	 1	 1400.61	 0.35	 0.37	 
BMI_bf_128	 0	 2	 01	 2	 41	 1.980264e+02	 101.tif	 118.tif	 18	 16	 0	 u	 1	 0	 696.55	 0.64	 0.67	 
BMI_bf_128	 0	 2	 01	 2	 42	 2.070261e+02	 109.tif	 130.tif	 9	 7	 1	 u	 1	 1	 816.15	 0.78	 0.80	 
BMI_bf_128	 0	 2	 01	 2	 43	 2.100260e+02	 116.tif	 101.tif	 14	 18	 1	 u	 1	 1	 904.14	 0.70	 0.64	 
BMI_bf_128	 0	 2	 01	 2	 44	 2.150259e+02	 027.tif	 016.tif	 51	 52	 1	 i	 2	 0	 807.88	 0.30	 0.29	 
BMI_bf_128	 0	 2	 01	 2	 45	 2.180257e+02	 003.tif	 004.tif	 50	 49	 0	 i	 2	 1	 975.85	 0.30	 0.32	 
BMI_bf_128	 0	 2	 01	 2	 46	 2.270254e+02	 014.tif	 107.tif	 41	 45	 1	 u	 2	 1	 791.45	 0.37	 0.34	 
BMI_bf_128	 0	 2	 01	 2	 47	 2.370250e+02	 002.tif	 017.tif	 40	 39	 1	 i	 2	 0	 1143.16	 0.37	 0.38	 
BMI_bf_128	 0	 2	 01	 2	 48	 2.400249e+02	 123.tif	 130.tif	 11	 7	 1	 i	 1	 0	 919.00	 0.73	 0.80	 
BMI_bf_128	 0	 2	 01	 2	 49	 2.470246e+02	 110.tif	 122.tif	 12	 22	 0	 u	 1	 0	 862.76	 0.72	 0.59	 
BMI_bf_128	 0	 2	 01	 2	 50	 2.500246e+02	 127.tif	 109.tif	 13	 9	 0	 i	 1	 1	 646.63	 0.71	 0.78	 
BMI_bf_128	 0	 2	 01	 2	 51	 2.530244e+02	 123.tif	 128.tif	 11	 10	 1	 i	 1	 0	 846.57	 0.73	 0.77	 
BMI_bf_128	 0	 2	 01	 2	 52	 2.560244e+02	 007.tif	 124.tif	 26	 35	 1	 i	 3	 0	 1166.39	 0.56	 0.39	 
BMI_bf_128	 0	 2	 01	 2	 53	 2.590242e+02	 130.tif	 118.tif	 7	 16	 0	 u	 1	 0	 710.38	 0.80	 0.67	 
BMI_bf_128	 0	 2	 01	 2	 54	 2.630242e+02	 027.tif	 026.tif	 51	 53	 1	 i	 2	 0	 886.15	 0.30	 0.28	 
BMI_bf_128	 0	 2	 01	 2	 55	 2.660240e+02	 003.tif	 001.tif	 50	 54	 0	 u	 2	 0	 934.13	 0.30	 0.27	 
BMI_bf_128	 0	 2	 01	 2	 56	 2.730238e+02	 024.tif	 108.tif	 20	 8	 0	 i	 1	 1	 933.80	 0.60	 0.78	 
BMI_bf_128	 0	 2	 01	 2	 57	 2.810234e+02	 110.tif	 108.tif	 12	 8	 0	 i	 1	 1	 885.61	 0.72	 0.78	 
BMI_bf_128	 0	 2	 01	 2	 58	 2.880232e+02	 122.tif	 127.tif	 22	 13	 1	 i	 1	 0	 925.29	 0.59	 0.71	 
BMI_bf_128	 0	 2	 01	 2	 59	 2.970227e+02	 107.tif	 004.tif	 45	 49	 0	 u	 2	 0	 629.21	 0.34	 0.32	 
BMI_bf_128	 0	 2	 01	 2	 60	 3.060226e+02	 014.tif	 016.tif	 41	 52	 1	 u	 2	 1	 876.65	 0.37	 0.29	 
BMI_bf_128	 0	 2	 01	 2	 61	 3.110224e+02	 101.tif	 109.tif	 18	 9	 0	 i	 1	 1	 740.54	 0.64	 0.78	 
BMI_bf_128	 0	 2	 01	 2	 62	 3.140223e+02	 121.tif	 110.tif	 19	 12	 1	 i	 1	 0	 1204.33	 0.61	 0.72	 
BMI_bf_128	 0	 2	 01	 2	 63	 3.170221e+02	 127.tif	 108.tif	 13	 8	 0	 i	 1	 1	 1068.32	 0.71	 0.78	 
BMI_bf_128	 0	 2	 01	 2	 64	 3.200221e+02	 119.tif	 002.tif	 47	 40	 0	 u	 2	 0	 860.14	 0.34	 0.37	 
BMI_bf_128	 0	 2	 01	 2	 65	 3.240219e+02	 120.tif	 017.tif	 46	 39	 1	 i	 2	 0	 860.08	 0.34	 0.38	 
BMI_bf_128	 0	 2	 01	 2	 66	 3.310217e+02	 107.tif	 027.tif	 45	 51	 0	 u	 2	 0	 931.75	 0.34	 0.30	 
BMI_bf_128	 0	 2	 01	 2	 67	 3.340215e+02	 101.tif	 108.tif	 18	 8	 0	 i	 1	 1	 771.72	 0.64	 0.78	 
BMI_bf_128	 0	 2	 01	 2	 68	 3.380215e+02	 026.tif	 004.tif	 53	 49	 0	 u	 2	 0	 955.52	 0.28	 0.32	 
