subjectID	 scanner	 order	 block	 run	 trial	 onsettime	 ImageLeft	 ImageRight	 bidIndexLeft	 bidIndexRight	 IsleftGo	 Response	 PairType	 Outcome	 RT	 bidLeft	 bidRight	 
n_125	 0	 1	 02	 2	 1	 2.015888e+00	 6838.jpg	 2456.jpg	 26	 38	 1	 u	 4	 1	 1195.90	 0.57	 0.43	 
n_125	 0	 1	 02	 2	 2	 5.007083e+00	 6570.1.JPG	 6560.JPG	 10	 8	 1	 i	 1	 0	 1420.69	 0.74	 0.76	 
n_125	 0	 1	 02	 2	 3	 1.201770e+01	 9008.jpg	 9373.jpg	 53	 41	 1	 u	 2	 1	 1210.00	 0.22	 0.36	 
n_125	 0	 1	 02	 2	 4	 1.601041e+01	 3103.jpg	 7078.jpg	 42	 49	 1	 i	 2	 0	 753.25	 0.35	 0.28	 
n_125	 0	 1	 02	 2	 5	 2.101800e+01	 10005.JPG	 1111.jpg	 52	 54	 1	 u	 2	 1	 785.60	 0.23	 0.18	 
n_125	 0	 1	 02	 2	 6	 2.501071e+01	 3160.jpg	 7078.jpg	 47	 49	 1	 i	 2	 0	 808.85	 0.30	 0.28	 
n_125	 0	 1	 02	 2	 7	 2.901678e+01	 3500.jpg	 6570.1.JPG	 9	 10	 0	 i	 1	 1	 978.74	 0.75	 0.74	 
n_125	 0	 1	 02	 2	 8	 3.200797e+01	 7078.jpg	 10005.JPG	 49	 52	 0	 i	 2	 1	 1091.51	 0.28	 0.23	 
n_125	 0	 1	 02	 2	 9	 3.501252e+01	 9390.jpg	 10003.JPG	 50	 51	 1	 u	 2	 1	 1078.95	 0.28	 0.23	 
n_125	 0	 1	 02	 2	 10	 4.000675e+01	 9495.jpg	 9050.jpg	 16	 13	 0	 i	 1	 1	 1204.67	 0.67	 0.71	 
n_125	 0	 1	 02	 2	 11	 4.401282e+01	 1111.jpg	 3103.jpg	 54	 42	 0	 u	 2	 0	 1486.55	 0.18	 0.35	 
n_125	 0	 1	 02	 2	 12	 4.900705e+01	 2205.jpg	 6213.jpg	 23	 35	 1	 u	 4	 1	 1148.28	 0.60	 0.44	 
n_125	 0	 1	 02	 2	 13	 5.301312e+01	 6570.1.JPG	 9090.jpg	 10	 22	 1	 u	 1	 1	 710.16	 0.74	 0.61	 
n_125	 0	 1	 02	 2	 14	 5.601767e+01	 9008.jpg	 1274.jpg	 53	 46	 1	 i	 2	 0	 1049.58	 0.22	 0.32	 
n_125	 0	 1	 02	 2	 15	 6.001038e+01	 10005.JPG	 9373.jpg	 52	 41	 1	 i	 2	 0	 896.85	 0.23	 0.36	 
n_125	 0	 1	 02	 2	 16	 6.600626e+01	 9120.jpg	 6211.jpg	 37	 25	 0	 i	 3	 1	 868.89	 0.44	 0.57	 
n_125	 0	 1	 02	 2	 17	 7.301674e+01	 9480.jpg	 9120.jpg	 24	 37	 1	 i	 3	 0	 1090.35	 0.59	 0.44	 
n_125	 0	 1	 02	 2	 18	 7.600794e+01	 9340.jpg	 2039.jpg	 18	 14	 1	 i	 1	 0	 963.12	 0.66	 0.70	 
n_125	 0	 1	 02	 2	 19	 8.101552e+01	 9390.jpg	 1271.jpg	 50	 48	 1	 u	 2	 1	 1203.49	 0.28	 0.30	 
n_125	 0	 1	 02	 2	 20	 8.600975e+01	 2039.jpg	 8480.jpg	 14	 12	 0	 i	 1	 1	 801.20	 0.70	 0.72	 
n_125	 0	 1	 02	 2	 21	 9.201885e+01	 2455.jpg	 9490.jpg	 19	 7	 0	 i	 1	 1	 808.04	 0.65	 0.80	 
n_125	 0	 1	 02	 2	 22	 9.601157e+01	 6560.JPG	 8480.jpg	 8	 12	 0	 i	 1	 1	 847.28	 0.76	 0.72	 
n_125	 0	 1	 02	 2	 23	 1.010192e+02	 10003.JPG	 3103.jpg	 51	 42	 0	 u	 2	 0	 1055.67	 0.23	 0.35	 
n_125	 0	 1	 02	 2	 24	 1.080164e+02	 7078.jpg	 9903.jpg	 49	 39	 0	 i	 2	 1	 1354.34	 0.28	 0.40	 
n_125	 0	 1	 02	 2	 25	 1.130106e+02	 9321.jpg	 1111.jpg	 44	 54	 1	 u	 2	 1	 1192.05	 0.32	 0.18	 
n_125	 0	 1	 02	 2	 26	 1.180182e+02	 9490.jpg	 6370.jpg	 7	 17	 1	 i	 1	 0	 744.43	 0.80	 0.66	 
n_125	 0	 1	 02	 2	 27	 1.210094e+02	 1274.jpg	 3160.jpg	 46	 47	 0	 i	 2	 1	 1001.18	 0.32	 0.30	 
n_125	 0	 1	 02	 2	 28	 1.240140e+02	 1274.jpg	 9390.jpg	 46	 50	 0	 i	 2	 1	 844.61	 0.32	 0.28	 
n_125	 0	 1	 02	 2	 29	 1.300097e+02	 6370.jpg	 9425.jpg	 17	 15	 0	 u	 1	 0	 624.81	 0.66	 0.67	 
n_125	 0	 1	 02	 2	 30	 1.340158e+02	 9495.jpg	 9490.jpg	 16	 7	 0	 i	 1	 1	 714.69	 0.67	 0.80	 
n_125	 0	 1	 02	 2	 31	 1.430161e+02	 1274.jpg	 3103.jpg	 46	 42	 0	 u	 2	 0	 706.30	 0.32	 0.35	 
n_125	 0	 1	 02	 2	 32	 1.480103e+02	 9373.jpg	 9390.jpg	 41	 50	 0	 i	 2	 1	 1056.03	 0.36	 0.28	 
n_125	 0	 1	 02	 2	 33	 1.570106e+02	 2039.jpg	 9490.jpg	 14	 7	 0	 i	 1	 1	 727.63	 0.70	 0.80	 
n_125	 0	 1	 02	 2	 34	 1.600152e+02	 10003.JPG	 9903.jpg	 51	 39	 0	 i	 2	 1	 859.07	 0.23	 0.40	 
n_125	 0	 1	 02	 2	 35	 1.640079e+02	 9090.jpg	 9330.jpg	 22	 20	 0	 i	 1	 1	 1250.30	 0.61	 0.62	 
n_125	 0	 1	 02	 2	 36	 1.700170e+02	 8480.jpg	 3500.jpg	 12	 9	 1	 i	 1	 0	 761.14	 0.72	 0.75	 
n_125	 0	 1	 02	 2	 37	 1.740097e+02	 9600.jpg	 6570.1.JPG	 11	 10	 0	 i	 1	 1	 672.40	 0.72	 0.74	 
n_125	 0	 1	 02	 2	 38	 1.810069e+02	 6570.1.JPG	 2455.jpg	 10	 19	 1	 i	 1	 0	 827.07	 0.74	 0.65	 
n_125	 0	 1	 02	 2	 39	 1.870160e+02	 2683.jpg	 7078.jpg	 45	 49	 1	 u	 2	 1	 945.89	 0.32	 0.28	 
n_125	 0	 1	 02	 2	 40	 1.980194e+02	 9373.jpg	 3103.jpg	 41	 42	 0	 u	 2	 0	 966.45	 0.36	 0.35	 
n_125	 0	 1	 02	 2	 41	 2.030136e+02	 9390.jpg	 7078.jpg	 50	 49	 1	 u	 2	 1	 852.17	 0.28	 0.28	 
n_125	 0	 1	 02	 2	 42	 2.090094e+02	 9390.jpg	 2799.jpg	 50	 43	 1	 i	 2	 0	 936.38	 0.28	 0.34	 
n_125	 0	 1	 02	 2	 43	 2.200127e+02	 9600.jpg	 6242.jpg	 11	 21	 0	 i	 1	 1	 876.94	 0.72	 0.61	 
n_125	 0	 1	 02	 2	 44	 2.230172e+02	 3160.jpg	 10003.JPG	 47	 51	 1	 u	 2	 1	 816.34	 0.30	 0.23	 
n_125	 0	 1	 02	 2	 45	 2.270099e+02	 9321.jpg	 1274.jpg	 44	 46	 1	 u	 2	 1	 951.59	 0.32	 0.32	 
n_125	 0	 1	 02	 2	 46	 2.380133e+02	 9373.jpg	 9903.jpg	 41	 39	 0	 i	 2	 1	 1084.16	 0.36	 0.40	 
n_125	 0	 1	 02	 2	 47	 2.420193e+02	 1271.jpg	 9008.jpg	 48	 53	 0	 u	 2	 0	 1382.03	 0.30	 0.22	 
n_125	 0	 1	 02	 2	 48	 2.450105e+02	 9090.jpg	 9425.jpg	 22	 15	 0	 i	 1	 1	 1062.82	 0.61	 0.67	 
n_125	 0	 1	 02	 2	 49	 2.560139e+02	 1274.jpg	 2683.jpg	 46	 45	 0	 i	 2	 1	 827.39	 0.32	 0.32	 
n_125	 0	 1	 02	 2	 50	 2.610081e+02	 9340.jpg	 3500.jpg	 18	 9	 1	 i	 1	 0	 1033.10	 0.66	 0.75	 
n_125	 0	 1	 02	 2	 51	 2.680187e+02	 6242.jpg	 2455.jpg	 21	 19	 1	 i	 1	 0	 694.44	 0.61	 0.65	 
n_125	 0	 1	 02	 2	 52	 2.720114e+02	 8480.jpg	 9090.jpg	 12	 22	 1	 u	 1	 1	 701.67	 0.72	 0.61	 
n_125	 0	 1	 02	 2	 53	 2.760175e+02	 2039.jpg	 6242.jpg	 14	 21	 0	 i	 1	 1	 775.56	 0.70	 0.61	 
n_125	 0	 1	 02	 2	 54	 2.790087e+02	 2683.jpg	 2799.jpg	 45	 43	 1	 i	 2	 0	 808.32	 0.32	 0.34	 
n_125	 0	 1	 02	 2	 55	 2.850178e+02	 3160.jpg	 2799.jpg	 47	 43	 1	 i	 2	 0	 815.16	 0.30	 0.34	 
n_125	 0	 1	 02	 2	 56	 2.890105e+02	 1271.jpg	 9321.jpg	 48	 44	 0	 i	 2	 1	 790.43	 0.30	 0.32	 
n_125	 0	 1	 02	 2	 57	 2.920151e+02	 6370.jpg	 9330.jpg	 17	 20	 0	 u	 1	 0	 777.83	 0.66	 0.62	 
n_125	 0	 1	 02	 2	 58	 2.990123e+02	 3103.jpg	 2799.jpg	 42	 43	 1	 i	 2	 0	 756.49	 0.35	 0.34	 
n_125	 0	 1	 02	 2	 59	 3.030184e+02	 9321.jpg	 2799.jpg	 44	 43	 1	 i	 2	 0	 638.39	 0.32	 0.34	 
n_125	 0	 1	 02	 2	 60	 3.060096e+02	 9490.jpg	 3500.jpg	 7	 9	 1	 i	 1	 0	 719.18	 0.80	 0.75	 
n_125	 0	 1	 02	 2	 61	 3.100156e+02	 9090.jpg	 9340.jpg	 22	 18	 0	 i	 1	 1	 729.06	 0.61	 0.66	 
n_125	 0	 1	 02	 2	 62	 3.130068e+02	 6560.JPG	 9340.jpg	 8	 18	 0	 i	 1	 1	 601.84	 0.76	 0.66	 
n_125	 0	 1	 02	 2	 63	 3.170129e+02	 3500.jpg	 9050.jpg	 9	 13	 0	 i	 1	 1	 659.73	 0.75	 0.71	 
n_125	 0	 1	 02	 2	 64	 3.220071e+02	 9600.jpg	 9050.jpg	 11	 13	 0	 i	 1	 1	 625.46	 0.72	 0.71	 
n_125	 0	 1	 02	 2	 65	 3.250117e+02	 9490.jpg	 6560.JPG	 7	 8	 1	 i	 1	 0	 660.86	 0.80	 0.76	 
n_125	 0	 1	 02	 2	 66	 3.300193e+02	 6370.jpg	 6570.1.JPG	 17	 10	 0	 u	 1	 0	 677.23	 0.66	 0.74	 
n_125	 0	 1	 02	 2	 67	 3.340120e+02	 9330.jpg	 9495.jpg	 20	 16	 1	 u	 1	 1	 812.50	 0.62	 0.67	 
n_125	 0	 1	 02	 2	 68	 3.380181e+02	 6242.jpg	 9495.jpg	 21	 16	 1	 u	 1	 1	 806.39	 0.61	 0.67	 
