subjectID	scanner	order	block	run	trial	onsettime	ImageLeft	ImageRight	bidIndexLeft	bidIndexRight	IsleftGo	Response	PairType	Outcome	RT	bidLeft	bidRight
BMI_bfr_109	0	1	04	1	1	2.018649e+00	129.jpg	104.jpg	12	8	1	u	1	1	877.20	0.71	0.77
BMI_bfr_109	0	1	04	1	2	5.022022e+00	145.jpg	136.jpg	20	9	1	i	1	0	562.65	0.63	0.74
BMI_bfr_109	0	1	04	1	3	9.026499e+00	116.jpg	113.jpg	19	21	0	i	1	1	810.91	0.63	0.63
BMI_bfr_109	0	1	04	1	4	1.501654e+01	128.jpg	109.jpg	43	42	0	u	2	0	592.37	0.37	0.37
BMI_bfr_109	0	1	04	1	5	2.102327e+01	122.jpg	123.jpg	25	36	1	u	3	1	694.66	0.56	0.44
BMI_bfr_109	0	1	04	1	6	2.601219e+01	116.jpg	129.jpg	19	12	0	i	1	1	509.71	0.63	0.71
BMI_bfr_109	0	1	04	1	7	3.001667e+01	148.jpg	132.jpg	55	6	0	i	4	1	589.17	0.20	0.79
BMI_bfr_109	0	1	04	1	8	3.502228e+01	115.jpg	145.jpg	11	20	0	u	1	0	758.84	0.71	0.63
BMI_bfr_109	0	1	04	1	9	4.101233e+01	152.jpg	110.jpg	38	26	0	u	4	0	877.80	0.40	0.55
BMI_bfr_109	0	1	04	1	10	4.401569e+01	116.jpg	135.jpg	19	7	0	i	1	1	878.31	0.63	0.77
BMI_bfr_109	0	1	04	1	11	4.701906e+01	116.jpg	145.jpg	19	20	0	i	1	1	800.06	0.63	0.63
BMI_bfr_109	0	1	04	1	12	5.102353e+01	129.jpg	103.jpg	12	14	1	u	1	1	519.57	0.71	0.68
BMI_bfr_109	0	1	04	1	13	5.601247e+01	112.jpg	118.jpg	44	41	1	i	2	0	672.08	0.36	0.39
BMI_bfr_109	0	1	04	1	14	5.901582e+01	127.jpg	145.jpg	22	20	0	u	1	0	627.60	0.59	0.63
BMI_bfr_109	0	1	04	1	15	6.201919e+01	150.jpg	143.jpg	23	58	1	u	4	1	695.67	0.58	0.17
BMI_bfr_109	0	1	04	1	16	6.602366e+01	118.jpg	146.jpg	41	45	0	i	2	1	730.11	0.39	0.34
BMI_bfr_109	0	1	04	1	17	8.002268e+01	116.jpg	124.jpg	19	18	0	u	1	0	884.22	0.63	0.65
BMI_bfr_109	0	1	04	1	18	8.801496e+01	136.jpg	124.jpg	9	18	0	u	1	0	756.06	0.74	0.65
BMI_bfr_109	0	1	04	1	19	9.402169e+01	128.jpg	112.jpg	43	44	0	u	2	0	453.34	0.37	0.36
BMI_bfr_109	0	1	04	1	20	9.702506e+01	146.jpg	138.jpg	45	54	1	i	2	0	915.13	0.34	0.23
BMI_bfr_109	0	1	04	1	21	1.010129e+02	133.jpg	136.jpg	10	9	1	i	1	0	943.79	0.74	0.74
BMI_bfr_109	0	1	04	1	22	1.070196e+02	136.jpg	135.jpg	9	7	0	i	1	1	607.32	0.74	0.77
BMI_bfr_109	0	1	04	1	23	1.100229e+02	125.jpg	144.jpg	40	53	0	u	2	0	675.36	0.39	0.25
BMI_bfr_109	0	1	04	1	24	1.130263e+02	108.jpg	155.jpg	50	49	1	i	2	0	664.62	0.26	0.27
BMI_bfr_109	0	1	04	1	25	1.160130e+02	151.jpg	115.jpg	13	11	1	i	1	0	738.09	0.68	0.71
BMI_bfr_109	0	1	04	1	26	1.230208e+02	106.jpg	123.jpg	24	36	1	u	3	1	1031.81	0.57	0.44
BMI_bfr_109	0	1	04	1	27	1.260242e+02	107.jpg	150.jpg	35	23	0	i	4	1	874.83	0.46	0.58
BMI_bfr_109	0	1	04	1	28	1.290109e+02	138.jpg	144.jpg	54	53	0	u	2	0	779.56	0.23	0.25
BMI_bfr_109	0	1	04	1	29	1.340165e+02	128.jpg	108.jpg	43	50	0	u	2	0	656.65	0.37	0.26
BMI_bfr_109	0	1	04	1	30	1.370198e+02	113.jpg	104.jpg	21	8	1	i	1	0	702.19	0.63	0.77
BMI_bfr_109	0	1	04	1	31	1.410243e+02	106.jpg	137.jpg	24	56	1	u	3	1	950.39	0.57	0.19
BMI_bfr_109	0	1	04	1	32	1.470144e+02	118.jpg	131.jpg	41	47	0	i	2	1	574.40	0.39	0.28
BMI_bfr_109	0	1	04	1	33	1.500177e+02	158.jpg	153.jpg	4	37	1	u	3	1	664.92	0.81	0.44
BMI_bfr_109	0	1	04	1	34	1.570256e+02	124.jpg	103.jpg	18	14	1	i	1	0	699.88	0.65	0.68
BMI_bfr_109	0	1	04	1	35	1.620145e+02	141.jpg	152.jpg	3	38	1	u	4	1	1099.96	0.85	0.40
BMI_bfr_109	0	1	04	1	36	1.660190e+02	151.jpg	136.jpg	13	9	1	i	1	0	819.37	0.68	0.74
BMI_bfr_109	0	1	04	1	37	1.690223e+02	122.jpg	120.jpg	25	57	1	u	3	1	1247.45	0.56	0.18
BMI_bfr_109	0	1	04	1	38	1.720257e+02	129.jpg	154.jpg	12	16	1	u	1	1	910.49	0.71	0.67
BMI_bfr_109	0	1	04	1	39	1.820202e+02	153.jpg	147.jpg	37	5	0	i	3	1	861.42	0.44	0.80
BMI_bfr_109	0	1	04	1	40	1.930159e+02	121.jpg	144.jpg	46	53	0	i	2	1	677.47	0.31	0.25
BMI_bfr_109	0	1	04	1	41	1.980215e+02	106.jpg	153.jpg	24	37	1	u	3	1	745.84	0.57	0.44
BMI_bfr_109	0	1	04	1	42	2.070149e+02	114.jpg	128.jpg	52	43	1	i	2	0	842.83	0.26	0.37
BMI_bfr_109	0	1	04	1	43	2.100182e+02	132.jpg	143.jpg	6	58	1	u	4	1	584.62	0.79	0.17
BMI_bfr_109	0	1	04	1	44	2.150238e+02	112.jpg	138.jpg	44	54	1	i	2	0	653.03	0.36	0.23
BMI_bfr_109	0	1	04	1	45	2.180105e+02	128.jpg	131.jpg	43	47	0	i	2	1	805.20	0.37	0.28
BMI_bfr_109	0	1	04	1	46	2.270206e+02	114.jpg	125.jpg	52	40	1	i	2	0	615.52	0.26	0.39
BMI_bfr_109	0	1	04	1	47	2.370151e+02	133.jpg	117.jpg	10	17	1	u	1	1	656.50	0.74	0.66
BMI_bfr_109	0	1	04	1	48	2.400185e+02	110.jpg	143.jpg	26	58	1	i	4	0	1174.52	0.55	0.17
BMI_bfr_109	0	1	04	1	49	2.470264e+02	117.jpg	129.jpg	17	12	0	i	1	1	624.47	0.66	0.71
BMI_bfr_109	0	1	04	1	50	2.500130e+02	120.jpg	147.jpg	57	5	0	i	3	1	619.19	0.18	0.80
BMI_bfr_109	0	1	04	1	51	2.530164e+02	127.jpg	124.jpg	22	18	0	i	1	1	810.99	0.59	0.65
BMI_bfr_109	0	1	04	1	52	2.560198e+02	128.jpg	144.jpg	43	53	0	i	2	1	822.75	0.37	0.25
BMI_bfr_109	0	1	04	1	53	2.590231e+02	114.jpg	118.jpg	52	41	1	u	2	1	1059.55	0.26	0.39
BMI_bfr_109	0	1	04	1	54	2.630109e+02	130.jpg	140.jpg	48	39	0	i	2	1	1144.42	0.27	0.39
BMI_bfr_109	0	1	04	1	55	2.660143e+02	155.jpg	140.jpg	49	39	0	u	2	0	874.94	0.27	0.39
BMI_bfr_109	0	1	04	1	56	2.730221e+02	143.jpg	141.jpg	58	3	0	i	4	1	617.43	0.17	0.85
BMI_bfr_109	0	1	04	1	57	2.810144e+02	154.jpg	151.jpg	16	13	0	i	1	1	579.23	0.67	0.68
BMI_bfr_109	0	1	04	1	58	2.880223e+02	117.jpg	145.jpg	17	20	0	i	1	1	726.71	0.66	0.63
BMI_bfr_109	0	1	04	1	59	2.970157e+02	128.jpg	140.jpg	43	39	0	u	2	0	598.73	0.37	0.39
BMI_bfr_109	0	1	04	1	60	3.060258e+02	130.jpg	146.jpg	48	45	0	i	2	1	566.53	0.27	0.34
BMI_bfr_109	0	1	04	1	61	3.110147e+02	156.jpg	117.jpg	15	17	1	u	1	1	572.84	0.67	0.66
BMI_bfr_109	0	1	04	1	62	3.140180e+02	125.jpg	131.jpg	40	47	0	i	2	1	899.64	0.39	0.28
BMI_bfr_109	0	1	04	1	63	3.170214e+02	114.jpg	138.jpg	52	54	1	i	2	0	618.88	0.26	0.23
BMI_bfr_109	0	1	04	1	64	3.200248e+02	109.jpg	118.jpg	42	41	1	u	2	1	619.43	0.37	0.39
BMI_bfr_109	0	1	04	1	65	3.240126e+02	138.jpg	131.jpg	54	47	0	i	2	1	1064.33	0.23	0.28
BMI_bfr_109	0	1	04	1	66	3.310204e+02	160.jpg	109.jpg	51	42	0	u	2	0	593.05	0.26	0.37
BMI_bfr_109	0	1	04	1	67	3.340238e+02	115.jpg	113.jpg	11	21	0	i	1	1	661.07	0.71	0.63
BMI_bfr_109	0	1	04	1	68	3.380116e+02	155.jpg	144.jpg	49	53	0	i	2	1	588.45	0.27	0.25
BMI_bfr_109	0	1	04	1	69	3.420160e+02	151.jpg	127.jpg	13	22	1	i	1	0	577.94	0.68	0.59
BMI_bfr_109	0	1	04	1	70	3.460205e+02	135.jpg	103.jpg	7	14	1	u	1	1	589.83	0.77	0.68
BMI_bfr_109	0	1	04	1	71	3.500250e+02	121.jpg	109.jpg	46	42	0	u	2	0	568.08	0.31	0.37
BMI_bfr_109	0	1	04	1	72	3.540128e+02	156.jpg	116.jpg	15	19	1	u	1	1	529.18	0.67	0.63
BMI_bfr_109	0	1	04	1	73	3.580173e+02	133.jpg	154.jpg	10	16	1	u	1	1	856.17	0.74	0.67
BMI_bfr_109	0	1	04	1	74	3.620218e+02	131.jpg	155.jpg	47	49	1	u	2	1	654.34	0.28	0.27
BMI_bfr_109	0	1	04	1	75	3.660263e+02	108.jpg	125.jpg	50	40	1	i	2	0	1060.08	0.26	0.39
BMI_bfr_109	0	1	04	1	76	3.700141e+02	103.jpg	156.jpg	14	15	0	i	1	1	571.15	0.68	0.67
BMI_bfr_109	0	1	04	1	77	3.740186e+02	124.jpg	154.jpg	18	16	1	u	1	1	661.87	0.65	0.67
BMI_bfr_109	0	1	04	1	78	3.780230e+02	145.jpg	154.jpg	20	16	1	i	1	0	966.35	0.63	0.67
BMI_bfr_109	0	1	04	1	79	3.820108e+02	114.jpg	160.jpg	52	51	1	u	2	1	533.74	0.26	0.26
BMI_bfr_109	0	1	04	1	80	3.860153e+02	146.jpg	155.jpg	45	49	1	u	2	1	478.13	0.34	0.27
