subjectID	scanner	order	block	run	trial	onsettime	ImageLeft	ImageRight	bidIndexLeft	bidIndexRight	IsleftGo	Response	PairType	Outcome	RT	bidLeft	bidRight
BMI_bfr_116	0	2	03	1	1	2.018180e+00	104.jpg	111.jpg	22	18	1	x	1	999	999000.00	0.64	0.67
BMI_bfr_116	0	2	03	1	2	5.021545e+00	113.jpg	107.jpg	21	19	0	i	1	1	819.83	0.65	0.67
BMI_bfr_116	0	2	03	1	3	9.026034e+00	141.jpg	148.jpg	26	55	1	u	3	1	674.28	0.55	0.23
BMI_bfr_116	0	2	03	1	4	1.501607e+01	158.jpg	150.jpg	42	41	0	i	2	1	692.06	0.31	0.33
BMI_bfr_116	0	2	03	1	5	2.102281e+01	104.jpg	130.jpg	22	12	1	i	1	0	1041.82	0.64	0.72
BMI_bfr_116	0	2	03	1	6	2.602843e+01	148.jpg	117.jpg	55	6	0	i	3	1	952.69	0.23	0.85
BMI_bfr_116	0	2	03	1	7	3.001622e+01	121.jpg	148.jpg	3	55	1	u	3	1	823.80	0.91	0.23
BMI_bfr_116	0	2	03	1	8	3.502184e+01	130.jpg	102.jpg	12	9	0	i	1	1	970.93	0.72	0.75
BMI_bfr_116	0	2	03	1	9	4.102858e+01	151.jpg	141.jpg	58	26	0	i	3	1	904.51	0.20	0.55
BMI_bfr_116	0	2	03	1	10	4.401525e+01	157.jpg	136.jpg	46	39	1	i	2	0	1382.96	0.29	0.35
BMI_bfr_116	0	2	03	1	11	4.701863e+01	160.jpg	114.jpg	15	14	0	i	1	1	1169.72	0.69	0.70
BMI_bfr_116	0	2	03	1	12	5.102311e+01	157.jpg	126.jpg	46	45	1	i	2	0	979.14	0.29	0.29
BMI_bfr_116	0	2	03	1	13	5.601203e+01	111.jpg	123.jpg	18	16	0	i	1	1	1199.23	0.67	0.68
BMI_bfr_116	0	2	03	1	14	5.901540e+01	102.jpg	160.jpg	9	15	1	i	1	0	884.75	0.75	0.69
BMI_bfr_116	0	2	03	1	15	6.201877e+01	109.jpg	147.jpg	4	57	1	i	4	0	1155.25	0.87	0.20
BMI_bfr_116	0	2	03	1	16	6.602326e+01	140.jpg	134.jpg	50	48	0	i	2	1	1065.92	0.27	0.28
BMI_bfr_116	0	2	03	1	17	8.002228e+01	130.jpg	107.jpg	12	19	0	i	1	1	983.85	0.72	0.67
BMI_bfr_116	0	2	03	1	18	8.801458e+01	119.jpg	149.jpg	43	47	1	u	2	1	1305.67	0.31	0.28
BMI_bfr_116	0	2	03	1	19	9.402131e+01	154.jpg	156.jpg	36	24	0	i	4	1	845.43	0.38	0.61
BMI_bfr_116	0	2	03	1	20	9.702467e+01	160.jpg	107.jpg	15	19	0	x	1	999	999000.00	0.69	0.67
BMI_bfr_116	0	2	03	1	21	1.010125e+02	136.jpg	152.jpg	39	51	0	i	2	1	1009.59	0.35	0.27
BMI_bfr_116	0	2	03	1	22	1.070192e+02	107.jpg	111.jpg	19	18	1	u	1	1	729.37	0.67	0.67
BMI_bfr_116	0	2	03	1	23	1.100226e+02	135.jpg	137.jpg	52	40	0	u	2	0	921.20	0.26	0.35
BMI_bfr_116	0	2	03	1	24	1.130259e+02	135.jpg	150.jpg	52	41	0	i	2	1	910.40	0.26	0.33
BMI_bfr_116	0	2	03	1	25	1.160126e+02	106.jpg	146.jpg	8	7	1	u	1	1	736.37	0.76	0.79
BMI_bfr_116	0	2	03	1	26	1.230205e+02	136.jpg	134.jpg	39	48	0	i	2	1	951.33	0.35	0.28
BMI_bfr_116	0	2	03	1	27	1.260238e+02	151.jpg	120.jpg	58	23	0	i	3	1	974.35	0.20	0.64
BMI_bfr_116	0	2	03	1	28	1.290272e+02	111.jpg	114.jpg	18	14	0	i	1	1	918.64	0.67	0.70
BMI_bfr_116	0	2	03	1	29	1.340161e+02	135.jpg	155.jpg	52	54	0	i	2	1	936.18	0.26	0.24
BMI_bfr_116	0	2	03	1	30	1.370195e+02	156.jpg	125.jpg	24	56	1	u	4	1	1082.94	0.61	0.21
BMI_bfr_116	0	2	03	1	31	1.410240e+02	123.jpg	130.jpg	16	12	1	u	1	1	948.65	0.68	0.72
BMI_bfr_116	0	2	03	1	32	1.470140e+02	139.jpg	160.jpg	17	15	1	i	1	0	707.61	0.68	0.69
BMI_bfr_116	0	2	03	1	33	1.500174e+02	107.jpg	108.jpg	19	13	1	u	1	1	854.38	0.67	0.71
BMI_bfr_116	0	2	03	1	34	1.570252e+02	115.jpg	154.jpg	25	36	1	i	4	0	956.90	0.60	0.38
BMI_bfr_116	0	2	03	1	35	1.620142e+02	125.jpg	103.jpg	56	5	0	i	4	1	985.67	0.21	0.86
BMI_bfr_116	0	2	03	1	36	1.660187e+02	136.jpg	119.jpg	39	43	0	i	2	1	1098.85	0.35	0.31
BMI_bfr_116	0	2	03	1	37	1.690220e+02	139.jpg	113.jpg	17	21	1	i	1	0	784.37	0.68	0.65
BMI_bfr_116	0	2	03	1	38	1.720254e+02	134.jpg	101.jpg	48	53	1	u	2	1	863.64	0.28	0.25
BMI_bfr_116	0	2	03	1	39	1.820199e+02	137.jpg	140.jpg	40	50	1	u	2	1	1118.34	0.35	0.27
BMI_bfr_116	0	2	03	1	40	1.930156e+02	113.jpg	106.jpg	21	8	0	i	1	1	833.18	0.65	0.76
BMI_bfr_116	0	2	03	1	41	1.980212e+02	124.jpg	112.jpg	11	10	1	u	1	1	1194.07	0.73	0.74
BMI_bfr_116	0	2	03	1	42	2.070146e+02	106.jpg	130.jpg	8	12	1	u	1	1	829.79	0.76	0.72
BMI_bfr_116	0	2	03	1	43	2.100180e+02	142.jpg	117.jpg	35	6	0	i	3	1	954.07	0.40	0.85
BMI_bfr_116	0	2	03	1	44	2.150236e+02	155.jpg	126.jpg	54	45	1	x	2	999	999000.00	0.24	0.29
BMI_bfr_116	0	2	03	1	45	2.180269e+02	160.jpg	104.jpg	15	22	0	i	1	1	527.95	0.69	0.64
BMI_bfr_116	0	2	03	1	46	2.270203e+02	119.jpg	158.jpg	43	42	1	u	2	1	714.94	0.31	0.31
BMI_bfr_116	0	2	03	1	47	2.370149e+02	157.jpg	131.jpg	46	44	1	u	2	1	1025.88	0.29	0.30
BMI_bfr_116	0	2	03	1	48	2.400182e+02	158.jpg	157.jpg	42	46	0	i	2	1	1161.50	0.31	0.29
BMI_bfr_116	0	2	03	1	49	2.470261e+02	155.jpg	140.jpg	54	50	1	u	2	1	1005.16	0.24	0.27
BMI_bfr_116	0	2	03	1	50	2.500128e+02	108.jpg	124.jpg	13	11	0	i	1	1	696.06	0.71	0.73
BMI_bfr_116	0	2	03	1	51	2.530161e+02	146.jpg	139.jpg	7	17	0	u	1	0	955.34	0.79	0.68
BMI_bfr_116	0	2	03	1	52	2.560195e+02	118.jpg	114.jpg	20	14	0	i	1	1	967.14	0.66	0.70
BMI_bfr_116	0	2	03	1	53	2.590229e+02	102.jpg	113.jpg	9	21	1	u	1	1	1091.46	0.75	0.65
BMI_bfr_116	0	2	03	1	54	2.630273e+02	146.jpg	123.jpg	7	16	0	i	1	1	833.41	0.79	0.68
BMI_bfr_116	0	2	03	1	55	2.660140e+02	115.jpg	125.jpg	25	56	1	i	4	0	985.58	0.60	0.21
BMI_bfr_116	0	2	03	1	56	2.730219e+02	111.jpg	139.jpg	18	17	0	u	1	0	1166.86	0.67	0.68
BMI_bfr_116	0	2	03	1	57	2.810142e+02	155.jpg	136.jpg	54	39	1	i	2	0	813.60	0.24	0.35
BMI_bfr_116	0	2	03	1	58	2.880220e+02	136.jpg	150.jpg	39	41	0	u	2	0	949.84	0.35	0.33
BMI_bfr_116	0	2	03	1	59	2.970154e+02	137.jpg	101.jpg	40	53	1	i	2	0	1013.08	0.35	0.25
BMI_bfr_116	0	2	03	1	60	3.060255e+02	149.jpg	150.jpg	47	41	0	u	2	0	1070.88	0.28	0.33
BMI_bfr_116	0	2	03	1	61	3.110144e+02	134.jpg	135.jpg	48	52	1	u	2	1	1414.71	0.28	0.26
BMI_bfr_116	0	2	03	1	62	3.140178e+02	101.jpg	155.jpg	53	54	0	u	2	0	1089.00	0.25	0.24
BMI_bfr_116	0	2	03	1	63	3.170212e+02	150.jpg	131.jpg	41	44	1	i	2	0	909.57	0.33	0.30
BMI_bfr_116	0	2	03	1	64	3.200245e+02	141.jpg	159.jpg	26	38	1	u	3	1	808.78	0.55	0.36
BMI_bfr_116	0	2	03	1	65	3.240123e+02	129.jpg	156.jpg	37	24	0	i	4	1	1096.17	0.36	0.61
BMI_bfr_116	0	2	03	1	66	3.310202e+02	112.jpg	139.jpg	10	17	0	i	1	1	1131.16	0.74	0.68
BMI_bfr_116	0	2	03	1	67	3.340236e+02	150.jpg	126.jpg	41	45	1	i	2	0	1019.17	0.33	0.29
BMI_bfr_116	0	2	03	1	68	3.380280e+02	124.jpg	113.jpg	11	21	1	u	1	1	783.57	0.73	0.65
BMI_bfr_116	0	2	03	1	69	3.420158e+02	159.jpg	120.jpg	38	23	0	i	3	1	722.23	0.36	0.64
BMI_bfr_116	0	2	03	1	70	3.460203e+02	103.jpg	147.jpg	5	57	1	u	4	1	880.41	0.86	0.20
BMI_bfr_116	0	2	03	1	71	3.500248e+02	111.jpg	106.jpg	18	8	0	i	1	1	881.11	0.67	0.76
BMI_bfr_116	0	2	03	1	72	3.540126e+02	135.jpg	152.jpg	52	51	0	i	2	1	898.54	0.26	0.27
BMI_bfr_116	0	2	03	1	73	3.580171e+02	101.jpg	119.jpg	53	43	0	u	2	0	1191.71	0.25	0.31
BMI_bfr_116	0	2	03	1	74	3.620216e+02	155.jpg	131.jpg	54	44	1	i	2	0	719.89	0.24	0.30
BMI_bfr_116	0	2	03	1	75	3.660261e+02	108.jpg	102.jpg	13	9	0	i	1	1	686.82	0.71	0.75
BMI_bfr_116	0	2	03	1	76	3.700139e+02	119.jpg	131.jpg	43	44	1	u	2	1	1255.47	0.31	0.30
BMI_bfr_116	0	2	03	1	77	3.740184e+02	123.jpg	160.jpg	16	15	1	i	1	0	659.98	0.68	0.69
BMI_bfr_116	0	2	03	1	78	3.780228e+02	119.jpg	135.jpg	43	52	1	u	2	1	1043.12	0.31	0.26
BMI_bfr_116	0	2	03	1	79	3.820273e+02	126.jpg	134.jpg	45	48	0	i	2	1	1077.59	0.29	0.28
BMI_bfr_116	0	2	03	1	80	3.860151e+02	124.jpg	130.jpg	11	12	1	u	1	1	633.68	0.73	0.72
