subjectID	scanner	order	block	run	trial	onsettime	ImageLeft	ImageRight	bidIndexLeft	bidIndexRight	IsleftGo	Response	PairType	Outcome	RT	bidLeft	bidRight	
BOA_112	 0	 2	 02	 1	 1	 2.018907e+00	 DoritosGrill.bmp	 Snickers.bmp	 16	 12	 1	 u	 1	 1	 1317.54	 5.93	 6.11	 
BOA_112	 0	 2	 02	 1	 2	 1.002789e+01	 ChocolateParaCookies5.bmp	 KinderBuenoWhite2.bmp	 15	 17	 0	 u	 1	 0	 1044.55	 5.96	 5.89	 
BOA_112	 0	 2	 02	 1	 3	 1.403239e+01	 Bounty.bmp	 Smarties.bmp	 46	 45	 1	 x	 2	 999	 999000.00	 0.09	 0.11	 
BOA_112	 0	 2	 02	 1	 4	 1.902122e+01	 DoritosGrill.bmp	 BambaNugat.bmp	 16	 13	 1	 i	 1	 0	 923.22	 5.93	 6.09	 
BOA_112	 0	 2	 02	 1	 5	 2.803132e+01	 BisliOnion.bmp	 Tortit.bmp	 48	 50	 1	 x	 2	 999	 999000.00	 0.07	 0.07	 
BOA_112	 0	 2	 02	 1	 6	 3.302031e+01	 Smarties.bmp	 Bamba.bmp	 45	 43	 0	 x	 2	 999	 999000.00	 0.11	 0.11	 
BOA_112	 0	 2	 02	 1	 7	 3.602360e+01	 Cheetos.bmp	 Kitkat.bmp	 14	 10	 1	 i	 1	 0	 832.84	 6.00	 7.47	 
BOA_112	 0	 2	 02	 1	 8	 4.002811e+01	 Tortit.bmp	 Tictac.bmp	 50	 54	 0	 x	 2	 999	 999000.00	 0.07	 0.04	 
BOA_112	 0	 2	 02	 1	 9	 4.403260e+01	 BambaNugat.bmp	 ClickBalls5.bmp	 13	 8	 0	 i	 1	 1	 671.84	 6.09	 7.53	 
BOA_112	 0	 2	 02	 1	 10	 4.701933e+01	 Tictac.bmp	 Taami.bmp	 54	 44	 1	 x	 2	 999	 999000.00	 0.04	 0.11	 
BOA_112	 0	 2	 02	 1	 11	 5.202485e+01	 BisliOnion.bmp	 Smarties.bmp	 48	 45	 1	 x	 2	 999	 999000.00	 0.07	 0.11	 
BOA_112	 0	 2	 02	 1	 12	 5.901585e+01	 ClickBalls5.bmp	 ClickBlackWhite3.bmp	 8	 18	 1	 u	 1	 1	 992.60	 7.53	 5.51	 
BOA_112	 0	 2	 02	 1	 13	 6.702503e+01	 Smarties.bmp	 Mekupelet.bmp	 45	 49	 0	 x	 2	 999	 999000.00	 0.11	 0.07	 
BOA_112	 0	 2	 02	 1	 14	 7.002841e+01	 DoritosGrill.bmp	 Loacker.bmp	 16	 7	 1	 i	 1	 0	 1212.03	 5.93	 7.69	 
BOA_112	 0	 2	 02	 1	 15	 7.501704e+01	 BambaSweet.bmp	 Tapuchips.bmp	 51	 52	 1	 x	 2	 999	 999000.00	 0.07	 0.07	 
BOA_112	 0	 2	 02	 1	 16	 8.402738e+01	 Bamba.bmp	 Tapuchips.bmp	 43	 52	 1	 x	 2	 999	 999000.00	 0.11	 0.07	 
BOA_112	 0	 2	 02	 1	 17	 8.901610e+01	 PesekZman.bmp	 ChocolateParaCookies5.bmp	 11	 15	 1	 i	 1	 0	 840.34	 7.11	 5.96	 
BOA_112	 0	 2	 02	 1	 18	 9.201974e+01	 ChocolateParaCookies5.bmp	 DoritosGrill.bmp	 15	 16	 0	 u	 1	 0	 980.69	 5.96	 5.93	 
BOA_112	 0	 2	 02	 1	 19	 9.602415e+01	 Mekupelet.bmp	 Taami.bmp	 49	 44	 1	 x	 2	 999	 999000.00	 0.07	 0.11	 
BOA_112	 0	 2	 02	 1	 20	 9.902765e+01	 ChocolateParaMarir2.bmp	 BambaSweet.bmp	 47	 51	 0	 x	 2	 999	 999000.00	 0.07	 0.07	 
BOA_112	 0	 2	 02	 1	 21	 1.100232e+02	 PesekZman.bmp	 Loacker.bmp	 11	 7	 1	 u	 1	 1	 817.19	 7.11	 7.69	 
BOA_112	 0	 2	 02	 1	 22	 1.170311e+02	 Loacker.bmp	 Cheetos.bmp	 7	 14	 0	 x	 1	 999	 999000.00	 7.69	 6.00	 
BOA_112	 0	 2	 02	 1	 23	 1.200175e+02	 Tapuchips.bmp	 Tictac.bmp	 52	 54	 0	 x	 2	 999	 999000.00	 0.07	 0.04	 
BOA_112	 0	 2	 02	 1	 24	 1.300289e+02	 BambaNugat.bmp	 PesekZman.bmp	 13	 11	 0	 u	 1	 0	 811.51	 6.09	 7.11	 
BOA_112	 0	 2	 02	 1	 25	 1.330324e+02	 GumiWine2.bmp	 BambaSweet.bmp	 53	 51	 0	 x	 2	 999	 999000.00	 0.04	 0.07	 
BOA_112	 0	 2	 02	 1	 26	 1.380212e+02	 DoritosGrill.bmp	 Kitkat.bmp	 16	 10	 1	 i	 1	 0	 875.23	 5.93	 7.47	 
BOA_112	 0	 2	 02	 1	 27	 1.460303e+02	 BisliOnion.bmp	 Tapuchips.bmp	 48	 52	 1	 x	 2	 999	 999000.00	 0.07	 0.07	 
BOA_112	 0	 2	 02	 1	 28	 1.560247e+02	 Taami.bmp	 BambaSweet.bmp	 44	 51	 0	 u	 2	 0	 655.74	 0.11	 0.07	 
BOA_112	 0	 2	 02	 1	 29	 1.650183e+02	 Taami.bmp	 Bounty.bmp	 44	 46	 0	 x	 2	 999	 999000.00	 0.11	 0.09	 
BOA_112	 0	 2	 02	 1	 30	 1.680215e+02	 ClickXLbrown4.bmp	 ClickBlackWhite3.bmp	 9	 18	 1	 u	 1	 1	 770.91	 7.47	 5.51	 
BOA_112	 0	 2	 02	 1	 31	 1.720260e+02	 ChocolateParaMarir2.bmp	 Mekupelet.bmp	 47	 49	 0	 x	 2	 999	 999000.00	 0.07	 0.07	 
BOA_112	 0	 2	 02	 1	 32	 1.750294e+02	 Cheetos.bmp	 ClickBlackWhite3.bmp	 14	 18	 1	 i	 1	 0	 795.04	 6.00	 5.51	 
BOA_112	 0	 2	 02	 1	 33	 1.780328e+02	 Tortit.bmp	 Bounty.bmp	 50	 46	 0	 x	 2	 999	 999000.00	 0.07	 0.09	 
BOA_112	 0	 2	 02	 1	 34	 1.820205e+02	 Bamba.bmp	 GumiWine2.bmp	 43	 53	 1	 x	 2	 999	 999000.00	 0.11	 0.04	 
BOA_112	 0	 2	 02	 1	 35	 1.920318e+02	 BambaSweet.bmp	 Smarties.bmp	 51	 45	 1	 x	 2	 999	 999000.00	 0.07	 0.11	 
BOA_112	 0	 2	 02	 1	 36	 2.030274e+02	 Bamba.bmp	 Tortit.bmp	 43	 50	 1	 x	 2	 999	 999000.00	 0.11	 0.07	 
BOA_112	 0	 2	 02	 1	 37	 2.060308e+02	 Bounty.bmp	 GumiWine2.bmp	 46	 53	 1	 x	 2	 999	 999000.00	 0.09	 0.04	 
BOA_112	 0	 2	 02	 1	 38	 2.090173e+02	 Bounty.bmp	 ChocolateParaMarir2.bmp	 46	 47	 1	 x	 2	 999	 999000.00	 0.09	 0.07	 
BOA_112	 0	 2	 02	 1	 39	 2.120208e+02	 BambaNugat.bmp	 Cheetos.bmp	 13	 14	 0	 u	 1	 0	 899.65	 6.09	 6.00	 
BOA_112	 0	 2	 02	 1	 40	 2.180276e+02	 BambaSweet.bmp	 Tortit.bmp	 51	 50	 1	 x	 2	 999	 999000.00	 0.07	 0.07	 
BOA_112	 0	 2	 02	 1	 41	 2.210309e+02	 ClickXLbrown4.bmp	 Loacker.bmp	 9	 7	 1	 u	 1	 1	 801.50	 7.47	 7.69	 
BOA_112	 0	 2	 02	 1	 42	 2.250187e+02	 ClickBlackWhite3.bmp	 KinderBuenoWhite2.bmp	 18	 17	 0	 u	 1	 0	 773.70	 5.51	 5.89	 
BOA_112	 0	 2	 02	 1	 43	 2.300243e+02	 Loacker.bmp	 ClickBalls5.bmp	 7	 8	 0	 i	 1	 1	 1168.13	 7.69	 7.53	 
BOA_112	 0	 2	 02	 1	 44	 2.370322e+02	 GumiWine2.bmp	 Mekupelet.bmp	 53	 49	 0	 x	 2	 999	 999000.00	 0.04	 0.07	 
BOA_112	 0	 2	 02	 1	 45	 2.400189e+02	 ChocolateParaMarir2.bmp	 Tictac.bmp	 47	 54	 0	 x	 2	 999	 999000.00	 0.07	 0.04	 
BOA_112	 0	 2	 02	 1	 46	 2.430223e+02	 PesekZman.bmp	 ClickBlackWhite3.bmp	 11	 18	 1	 u	 1	 1	 1058.15	 7.11	 5.51	 
BOA_112	 0	 2	 02	 1	 47	 2.460256e+02	 Mekupelet.bmp	 Tortit.bmp	 49	 50	 1	 x	 2	 999	 999000.00	 0.07	 0.07	 
BOA_112	 0	 2	 02	 1	 48	 2.530334e+02	 ClickBlackWhite3.bmp	 DoritosGrill.bmp	 18	 16	 0	 u	 1	 0	 607.00	 5.51	 5.93	 
BOA_112	 0	 2	 02	 1	 49	 2.560201e+02	 ChocolateParaMarir2.bmp	 Bamba.bmp	 47	 43	 0	 x	 2	 999	 999000.00	 0.07	 0.11	 
BOA_112	 0	 2	 02	 1	 50	 2.590235e+02	 Tapuchips.bmp	 Bounty.bmp	 52	 46	 0	 x	 2	 999	 999000.00	 0.07	 0.09	 
BOA_112	 0	 2	 02	 1	 51	 2.620268e+02	 CrunchBisquitBrown3.bmp	 Hit.bmp	 5	 55	 1	 u	 4	 1	 717.64	 7.98	 0.04	 
BOA_112	 0	 2	 02	 1	 52	 2.650302e+02	 Mekupelet.bmp	 Tapuchips.bmp	 49	 52	 1	 x	 2	 999	 999000.00	 0.07	 0.07	 
BOA_112	 0	 2	 02	 1	 53	 2.730225e+02	 DoritosSourSpicy.bmp	 CrunchBisquitBrown3.bmp	 56	 5	 0	 i	 4	 1	 689.89	 0.04	 7.98	 
BOA_112	 0	 2	 02	 1	 54	 2.790292e+02	 Snickers.bmp	 KinderBuenoWhite2.bmp	 12	 17	 0	 i	 1	 1	 803.22	 6.11	 5.89	 
BOA_112	 0	 2	 02	 1	 55	 2.820326e+02	 Snickers.bmp	 ClickBalls5.bmp	 12	 8	 0	 i	 1	 1	 1135.90	 6.11	 7.53	 
BOA_112	 0	 2	 02	 1	 56	 2.860204e+02	 ClickBalls5.bmp	 Kitkat.bmp	 8	 10	 1	 u	 1	 1	 852.07	 7.53	 7.47	 
BOA_112	 0	 2	 02	 1	 57	 2.890237e+02	 BisliOnion.bmp	 ChocolateParaMarir2.bmp	 48	 47	 1	 x	 2	 999	 999000.00	 0.07	 0.07	 
BOA_112	 0	 2	 02	 1	 58	 2.950304e+02	 ClickXLbrown4.bmp	 ChocolateParaCookies5.bmp	 9	 15	 1	 u	 1	 1	 602.01	 7.47	 5.96	 
BOA_112	 0	 2	 02	 1	 59	 2.980172e+02	 ChocolateParaCookies5.bmp	 Cheetos.bmp	 15	 14	 0	 x	 1	 999	 999000.00	 5.96	 6.00	 
BOA_112	 0	 2	 02	 1	 60	 3.040239e+02	 Snickers.bmp	 PesekZman.bmp	 12	 11	 0	 i	 1	 1	 1056.57	 6.11	 7.11	 
BOA_112	 0	 2	 02	 1	 61	 3.130170e+02	 Kitkat.bmp	 PesekZman.bmp	 10	 11	 0	 u	 1	 0	 679.44	 7.47	 7.11	 
BOA_112	 0	 2	 02	 1	 62	 3.160206e+02	 GumiWine2.bmp	 BisliOnion.bmp	 53	 48	 0	 x	 2	 999	 999000.00	 0.04	 0.07	 
BOA_112	 0	 2	 02	 1	 63	 3.190240e+02	 KinderBuenoWhite2.bmp	 Kitkat.bmp	 17	 10	 1	 i	 1	 0	 704.47	 5.89	 7.47	 
BOA_112	 0	 2	 02	 1	 64	 3.250307e+02	 BambaNugat.bmp	 ClickXLbrown4.bmp	 13	 9	 0	 i	 1	 1	 881.70	 6.09	 7.47	 
BOA_112	 0	 2	 02	 1	 65	 3.300197e+02	 ClickXLbrown4.bmp	 Snickers.bmp	 9	 12	 1	 u	 1	 1	 692.76	 7.47	 6.11	 
BOA_112	 0	 2	 02	 1	 66	 3.330230e+02	 Smarties.bmp	 Tictac.bmp	 45	 54	 0	 x	 2	 999	 999000.00	 0.11	 0.04	 
BOA_112	 0	 2	 02	 1	 67	 3.390298e+02	 ChocolateParaCookies5.bmp	 ClickBalls5.bmp	 15	 8	 0	 i	 1	 1	 666.64	 5.96	 7.53	 
BOA_112	 0	 2	 02	 1	 68	 3.420332e+02	 DoritosSourSpicy.bmp	 KinderBuenoBrown3.bmp	 56	 6	 0	 i	 4	 1	 703.28	 0.04	 7.73	 
BOA_112	 0	 2	 02	 1	 69	 3.450198e+02	 Kitkat.bmp	 ClickXLbrown4.bmp	 10	 9	 0	 i	 1	 1	 740.59	 7.47	 7.47	 
BOA_112	 0	 2	 02	 1	 70	 3.490243e+02	 Cheetos.bmp	 Snickers.bmp	 14	 12	 1	 x	 1	 999	 999000.00	 6.00	 6.11	 
BOA_112	 0	 2	 02	 1	 71	 3.530288e+02	 Loacker.bmp	 KinderBuenoWhite2.bmp	 7	 17	 0	 i	 1	 1	 771.67	 7.69	 5.89	 
BOA_112	 0	 2	 02	 1	 72	 3.580174e+02	 Bamba.bmp	 Taami.bmp	 43	 44	 1	 x	 2	 999	 999000.00	 0.11	 0.11	 
BOA_112	 0	 2	 02	 1	 73	 3.650256e+02	 Tictac.bmp	 GumiWine2.bmp	 54	 53	 1	 x	 2	 999	 999000.00	 0.04	 0.04	 
BOA_112	 0	 2	 02	 1	 74	 3.710323e+02	 BisliOnion.bmp	 Taami.bmp	 48	 44	 1	 x	 2	 999	 999000.00	 0.07	 0.11	 
BOA_112	 0	 2	 02	 1	 75	 3.750201e+02	 Hit.bmp	 KinderBuenoBrown3.bmp	 55	 6	 0	 i	 4	 1	 788.38	 0.04	 7.73	 
BOA_112	 0	 2	 02	 1	 76	 3.780235e+02	 BambaNugat.bmp	 KinderBuenoWhite2.bmp	 13	 17	 0	 x	 1	 999	 999000.00	 6.09	 5.89	 
