subjectID	scanner	order	block	run	trial	onsettime	ImageLeft	ImageRight	bidIndexLeft	bidIndexRight	IsleftGo	Response	PairType	Outcome	RT	bidLeft	bidRight	
BSOV_115	 0	 1	 03	 1	 1	 2.018714e+00	 Bounty.bmp	 ClickBlackWhite3.bmp	 18	 16	 1	 i	 1	 0	 1081.23	 4.44	 4.93	 
BSOV_115	 0	 1	 03	 1	 2	 6.006553e+00	 Mars.bmp	 Twix.bmp	 12	 8	 1	 x	 1	 999	 999000.00	 5.73	 6.47	 
BSOV_115	 0	 1	 03	 1	 3	 1.001105e+01	 ClickBalls5.bmp	 Kitkat.bmp	 14	 15	 0	 i	 1	 1	 920.90	 5.71	 5.58	 
BSOV_115	 0	 1	 03	 1	 4	 1.501664e+01	 GumiWine2.bmp	 Shugi.bmp	 48	 50	 0	 u	 2	 0	 1099.31	 1.80	 1.71	 
BSOV_115	 0	 1	 03	 1	 5	 2.401007e+01	 BambaNugat.bmp	 KashitSour.bmp	 46	 53	 0	 i	 2	 1	 1225.87	 1.87	 1.27	 
BSOV_115	 0	 1	 03	 1	 6	 2.801458e+01	 BambaNugat.bmp	 PesekZman.bmp	 46	 45	 0	 i	 2	 1	 1029.37	 1.87	 1.93	 
BSOV_115	 0	 1	 03	 1	 7	 3.700797e+01	 KifkefMaklot2.bmp	 GumiWine2.bmp	 47	 48	 1	 u	 2	 1	 1187.98	 1.84	 1.80	 
BSOV_115	 0	 1	 03	 1	 8	 4.301476e+01	 BambaNugat.bmp	 Popco.bmp	 46	 44	 0	 i	 2	 1	 1093.18	 1.87	 1.98	 
BSOV_115	 0	 1	 03	 1	 9	 4.701924e+01	 ClickBisquit2.bmp	 Twix.bmp	 13	 8	 1	 i	 1	 0	 928.71	 5.73	 6.47	 
BSOV_115	 0	 1	 03	 1	 10	 5.000558e+01	 Kitkat.bmp	 CrunchBisquitBrown3.bmp	 15	 9	 1	 u	 1	 1	 1014.37	 5.58	 6.29	 
BSOV_115	 0	 1	 03	 1	 11	 5.401034e+01	 BambaNugat.bmp	 Shugi.bmp	 46	 50	 0	 i	 2	 1	 1153.61	 1.87	 1.71	 
BSOV_115	 0	 1	 03	 1	 12	 6.302041e+01	 Smarties.bmp	 KashitSour.bmp	 51	 53	 0	 i	 2	 1	 1159.54	 1.69	 1.27	 
BSOV_115	 0	 1	 03	 1	 13	 6.600724e+01	 ClickBalls5.bmp	 ClickBisquit2.bmp	 14	 13	 0	 i	 1	 1	 1388.71	 5.71	 5.73	 
BSOV_115	 0	 1	 03	 1	 14	 6.901046e+01	 PesekZman.bmp	 SkittlesSour4.bmp	 45	 43	 1	 u	 2	 1	 937.50	 1.93	 2.13	 
BSOV_115	 0	 1	 03	 1	 15	 7.201387e+01	 Twix.bmp	 Kitkat.bmp	 8	 15	 0	 i	 1	 1	 710.07	 6.47	 5.58	 
BSOV_115	 0	 1	 03	 1	 16	 7.701947e+01	 Popco.bmp	 SkittlesSour4.bmp	 44	 43	 1	 u	 2	 1	 1048.49	 1.98	 2.13	 
BSOV_115	 0	 1	 03	 1	 17	 8.000593e+01	 Popco.bmp	 Dubonim.bmp	 44	 49	 1	 x	 2	 999	 999000.00	 1.98	 1.80	 
BSOV_115	 0	 1	 03	 1	 18	 8.401060e+01	 Smarties.bmp	 Shugi.bmp	 51	 50	 0	 i	 2	 1	 929.37	 1.69	 1.71	 
BSOV_115	 0	 1	 03	 1	 19	 8.901622e+01	 GumiSnakes3.bmp	 Shugi.bmp	 54	 50	 0	 i	 2	 1	 707.73	 1.27	 1.71	 
BSOV_115	 0	 1	 03	 1	 20	 9.901083e+01	 SkittlesSour4.bmp	 BambaSweet.bmp	 43	 52	 0	 u	 2	 0	 1401.11	 2.13	 1.27	 
BSOV_115	 0	 1	 03	 1	 21	 1.030153e+02	 KifkefMaklot2.bmp	 Dubonim.bmp	 47	 49	 1	 u	 2	 1	 772.58	 1.84	 1.80	 
BSOV_115	 0	 1	 03	 1	 22	 1.100062e+02	 ChocolateParaCookies5.bmp	 Tictac.bmp	 5	 56	 1	 i	 4	 0	 973.79	 6.89	 1.16	 
BSOV_115	 0	 1	 03	 1	 23	 1.140110e+02	 BagaleShtuhim.bmp	 ClickBalls5.bmp	 10	 14	 1	 i	 1	 0	 1024.98	 5.91	 5.71	 
BSOV_115	 0	 1	 03	 1	 24	 1.180154e+02	 KashitSour.bmp	 SkittlesSour4.bmp	 53	 43	 1	 i	 2	 0	 1332.53	 1.27	 2.13	 
BSOV_115	 0	 1	 03	 1	 25	 1.210188e+02	 Mars.bmp	 ClickBlackWhite3.bmp	 12	 16	 1	 u	 1	 1	 745.17	 5.73	 4.93	 
BSOV_115	 0	 1	 03	 1	 26	 1.260078e+02	 PesekZman.bmp	 Dubonim.bmp	 45	 49	 1	 u	 2	 1	 996.21	 1.93	 1.80	 
BSOV_115	 0	 1	 03	 1	 27	 1.310133e+02	 CrunchBisquitWhite2.bmp	 Mars.bmp	 17	 12	 0	 i	 1	 1	 934.68	 4.93	 5.73	 
BSOV_115	 0	 1	 03	 1	 28	 1.390053e+02	 Tictac.bmp	 ChocolateParaSucariotKoftzot2.bmp	 56	 6	 0	 u	 4	 0	 758.69	 1.16	 6.76	 
BSOV_115	 0	 1	 03	 1	 29	 1.420089e+02	 SkittlesSour4.bmp	 Shugi.bmp	 43	 50	 0	 i	 2	 1	 1298.99	 2.13	 1.71	 
BSOV_115	 0	 1	 03	 1	 30	 1.490168e+02	 BagaleShtuhim.bmp	 ClickBlackWhite3.bmp	 10	 16	 1	 i	 1	 0	 995.11	 5.91	 4.93	 
BSOV_115	 0	 1	 03	 1	 31	 1.550067e+02	 Kitkat.bmp	 CrunchBisquitWhite2.bmp	 15	 17	 1	 u	 1	 1	 909.27	 5.58	 4.93	 
BSOV_115	 0	 1	 03	 1	 32	 1.600125e+02	 KashitSour.bmp	 GumiSnakes3.bmp	 53	 54	 1	 u	 2	 1	 887.47	 1.27	 1.27	 
BSOV_115	 0	 1	 03	 1	 33	 1.640170e+02	 ClickBisquit2.bmp	 CrunchBisquitBrown3.bmp	 13	 9	 1	 i	 1	 0	 922.97	 5.73	 6.29	 
BSOV_115	 0	 1	 03	 1	 34	 1.700071e+02	 BambaSweet.bmp	 Smarties.bmp	 52	 51	 1	 i	 2	 0	 1444.81	 1.27	 1.69	 
BSOV_115	 0	 1	 03	 1	 35	 1.740115e+02	 GumiSnakes3.bmp	 BambaSweet.bmp	 54	 52	 0	 x	 2	 999	 999000.00	 1.27	 1.27	 
BSOV_115	 0	 1	 03	 1	 36	 1.780160e+02	 Mars.bmp	 ClickBalls5.bmp	 12	 14	 1	 u	 1	 1	 1019.97	 5.73	 5.71	 
BSOV_115	 0	 1	 03	 1	 37	 1.840058e+02	 KashitSour.bmp	 Dubonim.bmp	 53	 49	 1	 u	 2	 1	 1030.18	 1.27	 1.80	 
BSOV_115	 0	 1	 03	 1	 38	 1.940173e+02	 KinderBuenoWhite2.bmp	 BagaleShtuhim.bmp	 11	 10	 0	 u	 1	 0	 1218.66	 5.89	 5.91	 
BSOV_115	 0	 1	 03	 1	 39	 1.980217e+02	 KinderBuenoWhite2.bmp	 Mars.bmp	 11	 12	 0	 x	 1	 999	 999000.00	 5.89	 5.73	 
BSOV_115	 0	 1	 03	 1	 40	 2.050129e+02	 GumiWine2.bmp	 PesekZman.bmp	 48	 45	 0	 i	 2	 1	 1223.04	 1.80	 1.93	 
BSOV_115	 0	 1	 03	 1	 41	 2.080163e+02	 PesekZman.bmp	 GumiSnakes3.bmp	 45	 54	 1	 u	 2	 1	 691.62	 1.93	 1.27	 
BSOV_115	 0	 1	 03	 1	 42	 2.120208e+02	 CrunchBisquitWhite2.bmp	 Bounty.bmp	 17	 18	 0	 i	 1	 1	 903.15	 4.93	 4.44	 
BSOV_115	 0	 1	 03	 1	 43	 2.190119e+02	 Tortit.bmp	 ChocolateParaCookies5.bmp	 55	 5	 0	 u	 4	 0	 1280.03	 1.22	 6.89	 
BSOV_115	 0	 1	 03	 1	 44	 2.230165e+02	 KifkefMaklot2.bmp	 SkittlesSour4.bmp	 47	 43	 1	 u	 2	 1	 707.49	 1.84	 2.13	 
BSOV_115	 0	 1	 03	 1	 45	 2.280220e+02	 KifkefMaklot2.bmp	 GumiSnakes3.bmp	 47	 54	 1	 u	 2	 1	 989.91	 1.84	 1.27	 
BSOV_115	 0	 1	 03	 1	 46	 2.310087e+02	 Mars.bmp	 CrunchBisquitBrown3.bmp	 12	 9	 1	 u	 1	 1	 843.22	 5.73	 6.29	 
BSOV_115	 0	 1	 03	 1	 47	 2.360143e+02	 ClickBisquit2.bmp	 ClickBlackWhite3.bmp	 13	 16	 1	 u	 1	 1	 1085.63	 5.73	 4.93	 
BSOV_115	 0	 1	 03	 1	 48	 2.390176e+02	 BambaNugat.bmp	 KifkefMaklot2.bmp	 46	 47	 0	 i	 2	 1	 794.30	 1.87	 1.84	 
BSOV_115	 0	 1	 03	 1	 49	 2.480111e+02	 Twix.bmp	 BagaleShtuhim.bmp	 8	 10	 0	 u	 1	 0	 720.87	 6.47	 5.91	 
BSOV_115	 0	 1	 03	 1	 50	 2.520156e+02	 ChocolateParaSucariotKoftzot2.bmp	 Tortit.bmp	 6	 55	 1	 u	 4	 1	 900.35	 6.76	 1.22	 
BSOV_115	 0	 1	 03	 1	 51	 2.590065e+02	 KinderBuenoWhite2.bmp	 Snickers.bmp	 11	 7	 0	 i	 1	 1	 1021.44	 5.89	 6.53	 
BSOV_115	 0	 1	 03	 1	 52	 2.680169e+02	 Smarties.bmp	 KifkefMaklot2.bmp	 51	 47	 0	 i	 2	 1	 843.02	 1.69	 1.84	 
BSOV_115	 0	 1	 03	 1	 53	 2.720213e+02	 Twix.bmp	 Bounty.bmp	 8	 18	 0	 u	 1	 0	 1390.59	 6.47	 4.44	 
BSOV_115	 0	 1	 03	 1	 54	 2.760092e+02	 Dubonim.bmp	 BambaSweet.bmp	 49	 52	 0	 u	 2	 0	 1306.76	 1.80	 1.27	 
BSOV_115	 0	 1	 03	 1	 55	 2.790125e+02	 Kitkat.bmp	 KinderBuenoWhite2.bmp	 15	 11	 1	 i	 1	 0	 927.43	 5.58	 5.89	 
BSOV_115	 0	 1	 03	 1	 56	 2.880060e+02	 Snickers.bmp	 Twix.bmp	 7	 8	 1	 u	 1	 1	 1493.92	 6.53	 6.47	 
BSOV_115	 0	 1	 03	 1	 57	 2.960149e+02	 ClickBisquit2.bmp	 CrunchBisquitWhite2.bmp	 13	 17	 1	 u	 1	 1	 1261.07	 5.73	 4.93	 
BSOV_115	 0	 1	 03	 1	 58	 3.040072e+02	 BambaNugat.bmp	 BambaSweet.bmp	 46	 52	 0	 i	 2	 1	 1212.77	 1.87	 1.27	 
BSOV_115	 0	 1	 03	 1	 59	 3.070106e+02	 Smarties.bmp	 Popco.bmp	 51	 44	 0	 i	 2	 1	 929.37	 1.69	 1.98	 
BSOV_115	 0	 1	 03	 1	 60	 3.110150e+02	 PesekZman.bmp	 Smarties.bmp	 45	 51	 1	 u	 2	 1	 1020.96	 1.93	 1.69	 
BSOV_115	 0	 1	 03	 1	 61	 3.150195e+02	 BagaleShtuhim.bmp	 CrunchBisquitWhite2.bmp	 10	 17	 1	 u	 1	 1	 1456.45	 5.91	 4.93	 
BSOV_115	 0	 1	 03	 1	 62	 3.180060e+02	 Bounty.bmp	 KinderBuenoWhite2.bmp	 18	 11	 1	 i	 1	 0	 781.91	 4.44	 5.89	 
BSOV_115	 0	 1	 03	 1	 63	 3.220107e+02	 KinderBuenoWhite2.bmp	 ClickBisquit2.bmp	 11	 13	 0	 i	 1	 1	 721.28	 5.89	 5.73	 
BSOV_115	 0	 1	 03	 1	 64	 3.260152e+02	 GumiSnakes3.bmp	 Popco.bmp	 54	 44	 0	 i	 2	 1	 588.78	 1.27	 1.98	 
BSOV_115	 0	 1	 03	 1	 65	 3.310208e+02	 Bounty.bmp	 ClickBalls5.bmp	 18	 14	 1	 u	 1	 1	 1391.14	 4.44	 5.71	 
BSOV_115	 0	 1	 03	 1	 66	 3.340075e+02	 ClickBlackWhite3.bmp	 Kitkat.bmp	 16	 15	 0	 i	 1	 1	 1044.42	 4.93	 5.58	 
BSOV_115	 0	 1	 03	 1	 67	 3.420164e+02	 Bounty.bmp	 CrunchBisquitBrown3.bmp	 18	 9	 1	 u	 1	 1	 1347.54	 4.44	 6.29	 
BSOV_115	 0	 1	 03	 1	 68	 3.450199e+02	 CrunchBisquitBrown3.bmp	 BagaleShtuhim.bmp	 9	 10	 0	 u	 1	 0	 1200.08	 6.29	 5.91	 
BSOV_115	 0	 1	 03	 1	 69	 3.500088e+02	 ClickBlackWhite3.bmp	 Snickers.bmp	 16	 7	 0	 i	 1	 1	 931.12	 4.93	 6.53	 
BSOV_115	 0	 1	 03	 1	 70	 3.550144e+02	 BambaSweet.bmp	 GumiWine2.bmp	 52	 48	 1	 x	 2	 999	 999000.00	 1.27	 1.80	 
BSOV_115	 0	 1	 03	 1	 71	 3.580177e+02	 KashitSour.bmp	 GumiWine2.bmp	 53	 48	 1	 u	 2	 1	 882.21	 1.27	 1.80	 
BSOV_115	 0	 1	 03	 1	 72	 3.610210e+02	 GumiWine2.bmp	 Popco.bmp	 48	 44	 0	 i	 2	 1	 582.90	 1.80	 1.98	 
BSOV_115	 0	 1	 03	 1	 73	 3.640078e+02	 CrunchBisquitBrown3.bmp	 Snickers.bmp	 9	 7	 0	 i	 1	 1	 604.19	 6.29	 6.53	 
BSOV_115	 0	 1	 03	 1	 74	 3.690134e+02	 Snickers.bmp	 CrunchBisquitWhite2.bmp	 7	 17	 1	 u	 1	 1	 574.50	 6.53	 4.93	 
BSOV_115	 0	 1	 03	 1	 75	 3.730178e+02	 Dubonim.bmp	 Shugi.bmp	 49	 50	 0	 i	 2	 1	 1282.12	 1.80	 1.71	 
BSOV_115	 0	 1	 03	 1	 76	 3.780069e+02	 ClickBalls5.bmp	 Snickers.bmp	 14	 7	 0	 i	 1	 1	 517.03	 5.71	 6.53	 
