subjectID	scanner	order	block	run	trial	onsettime	ImageLeft	ImageRight	bidIndexLeft	bidIndexRight	IsleftGo	Response	PairType	Outcome	RT	bidLeft	bidRight	
BSOV_102	 0	 2	 04	 1	 1	 2.017173e+00	 BambaSweet.bmp	 Keifli.bmp	 46	 45	 1	 u	 2	 1	 1052.90	 0.69	 0.73	 
BSOV_102	 0	 2	 04	 1	 2	 1.002619e+01	 ChocolateParaCookies5.bmp	 Bamba.bmp	 12	 16	 0	 u	 1	 0	 667.92	 4.82	 3.89	 
BSOV_102	 0	 2	 04	 1	 3	 1.401398e+01	 BambaSweet.bmp	 Popco.bmp	 46	 52	 1	 i	 2	 0	 944.11	 0.69	 0.38	 
BSOV_102	 0	 2	 04	 1	 4	 1.901972e+01	 BabyDoll.bmp	 Taami.bmp	 55	 6	 0	 i	 4	 1	 738.38	 0.29	 5.13	 
BSOV_102	 0	 2	 04	 1	 5	 2.801300e+01	 Tictac.bmp	 SkittlesFruits2.bmp	 50	 51	 0	 i	 2	 1	 1137.09	 0.56	 0.42	 
BSOV_102	 0	 2	 04	 1	 6	 3.301865e+01	 Hit.bmp	 KinderJoy.bmp	 17	 13	 1	 i	 1	 0	 675.44	 3.84	 4.31	 
BSOV_102	 0	 2	 04	 1	 7	 3.602203e+01	 BisliOnion.bmp	 KashitSour.bmp	 48	 47	 1	 u	 2	 1	 968.07	 0.60	 0.62	 
BSOV_102	 0	 2	 04	 1	 8	 4.002645e+01	 Mentos.bmp	 Tictac.bmp	 49	 50	 1	 i	 2	 0	 811.64	 0.58	 0.56	 
BSOV_102	 0	 2	 04	 1	 9	 4.401433e+01	 Smarties.bmp	 BambaSweet.bmp	 53	 46	 0	 u	 2	 0	 967.77	 0.31	 0.69	 
BSOV_102	 0	 2	 04	 1	 10	 4.701776e+01	 ClickXLbrown4.bmp	 Hit.bmp	 7	 17	 0	 u	 1	 0	 948.34	 4.93	 3.84	 
BSOV_102	 0	 2	 04	 1	 11	 5.202330e+01	 KashitSour.bmp	 DoritosGrill.bmp	 47	 43	 0	 i	 2	 1	 670.79	 0.62	 0.91	 
BSOV_102	 0	 2	 04	 1	 12	 5.901443e+01	 BambaSweet.bmp	 KashitSour.bmp	 46	 47	 1	 i	 2	 0	 823.66	 0.69	 0.62	 
BSOV_102	 0	 2	 04	 1	 13	 6.702342e+01	 WerthersOriginal.bmp	 Egozi.bmp	 11	 15	 1	 i	 1	 0	 686.68	 4.84	 3.93	 
BSOV_102	 0	 2	 04	 1	 14	 7.002686e+01	 Mentos.bmp	 Smarties.bmp	 49	 53	 1	 i	 2	 0	 763.23	 0.58	 0.31	 
BSOV_102	 0	 2	 04	 1	 15	 7.501576e+01	 ClickXLwhite4.bmp	 ClickBlackWhite3.bmp	 9	 10	 1	 u	 1	 1	 758.33	 4.84	 4.84	 
BSOV_102	 0	 2	 04	 1	 16	 8.402590e+01	 Tortit.bmp	 DoritosNatural.bmp	 54	 44	 1	 u	 2	 1	 868.19	 0.29	 0.78	 
BSOV_102	 0	 2	 04	 1	 17	 8.901487e+01	 KinderJoy.bmp	 PesekZman.bmp	 13	 14	 0	 u	 1	 0	 919.21	 4.31	 4.04	 
BSOV_102	 0	 2	 04	 1	 18	 9.201815e+01	 ClickBlackWhite3.bmp	 WerthersOriginal.bmp	 10	 11	 0	 u	 1	 0	 1003.92	 4.84	 4.84	 
BSOV_102	 0	 2	 04	 1	 19	 9.602259e+01	 Mentos.bmp	 DoritosNatural.bmp	 49	 44	 1	 u	 2	 1	 903.50	 0.58	 0.78	 
BSOV_102	 0	 2	 04	 1	 20	 9.902605e+01	 Mentos.bmp	 Keifli.bmp	 49	 45	 1	 u	 2	 1	 1044.05	 0.58	 0.73	 
BSOV_102	 0	 2	 04	 1	 21	 1.100217e+02	 WerthersOriginal.bmp	 ClickXLbrown4.bmp	 11	 7	 1	 i	 1	 0	 712.43	 4.84	 4.93	 
BSOV_102	 0	 2	 04	 1	 22	 1.170129e+02	 Twist.bmp	 Loacker.bmp	 8	 18	 1	 i	 1	 0	 1097.21	 4.89	 3.84	 
BSOV_102	 0	 2	 04	 1	 23	 1.200162e+02	 DoritosNatural.bmp	 DoritosGrill.bmp	 44	 43	 0	 i	 2	 1	 1037.88	 0.78	 0.91	 
BSOV_102	 0	 2	 04	 1	 24	 1.300274e+02	 WerthersOriginal.bmp	 KinderJoy.bmp	 11	 13	 1	 i	 1	 0	 610.68	 4.84	 4.31	 
BSOV_102	 0	 2	 04	 1	 25	 1.330142e+02	 DoritosGrill.bmp	 Smarties.bmp	 43	 53	 1	 i	 2	 0	 823.90	 0.91	 0.31	 
BSOV_102	 0	 2	 04	 1	 26	 1.380198e+02	 KinderJoy.bmp	 Twist.bmp	 13	 8	 0	 u	 1	 0	 690.28	 4.31	 4.89	 
BSOV_102	 0	 2	 04	 1	 27	 1.460117e+02	 BisliOnion.bmp	 DoritosNatural.bmp	 48	 44	 1	 u	 2	 1	 866.36	 0.60	 0.78	 
BSOV_102	 0	 2	 04	 1	 28	 1.560233e+02	 ClickXLbrown4.bmp	 Bamba.bmp	 7	 16	 0	 u	 1	 0	 646.76	 4.93	 3.89	 
BSOV_102	 0	 2	 04	 1	 29	 1.650167e+02	 Tortit.bmp	 KashitSour.bmp	 54	 47	 1	 i	 2	 0	 685.38	 0.29	 0.62	 
BSOV_102	 0	 2	 04	 1	 30	 1.680201e+02	 Smarties.bmp	 BisliOnion.bmp	 53	 48	 0	 u	 2	 0	 841.97	 0.31	 0.60	 
BSOV_102	 0	 2	 04	 1	 31	 1.720245e+02	 Popco.bmp	 SkittlesFruits2.bmp	 52	 51	 0	 i	 2	 1	 725.54	 0.38	 0.42	 
BSOV_102	 0	 2	 04	 1	 32	 1.750110e+02	 Keifli.bmp	 DoritosGrill.bmp	 45	 43	 0	 u	 2	 0	 643.13	 0.73	 0.91	 
BSOV_102	 0	 2	 04	 1	 33	 1.780146e+02	 BambaSweet.bmp	 DoritosNatural.bmp	 46	 44	 1	 i	 2	 0	 703.45	 0.69	 0.78	 
BSOV_102	 0	 2	 04	 1	 34	 1.820191e+02	 ChocolateParaCookies5.bmp	 WerthersOriginal.bmp	 12	 11	 0	 u	 1	 0	 722.94	 4.82	 4.84	 
BSOV_102	 0	 2	 04	 1	 35	 1.920136e+02	 Egozi.bmp	 Twist.bmp	 15	 8	 0	 u	 1	 0	 920.50	 3.93	 4.89	 
BSOV_102	 0	 2	 04	 1	 36	 2.030260e+02	 Loacker.bmp	 WerthersOriginal.bmp	 18	 11	 0	 u	 1	 0	 756.11	 3.84	 4.84	 
BSOV_102	 0	 2	 04	 1	 37	 2.060127e+02	 SkittlesFruits2.bmp	 Keifli.bmp	 51	 45	 1	 u	 2	 1	 729.36	 0.42	 0.73	 
BSOV_102	 0	 2	 04	 1	 38	 2.090160e+02	 ChocolateParaCookies5.bmp	 PesekZman.bmp	 12	 14	 0	 u	 1	 0	 638.08	 4.82	 4.04	 
BSOV_102	 0	 2	 04	 1	 39	 2.120194e+02	 Egozi.bmp	 Bamba.bmp	 15	 16	 0	 u	 1	 0	 634.71	 3.93	 3.89	 
BSOV_102	 0	 2	 04	 1	 40	 2.180261e+02	 Smarties.bmp	 Tortit.bmp	 53	 54	 0	 u	 2	 0	 731.95	 0.31	 0.29	 
BSOV_102	 0	 2	 04	 1	 41	 2.210128e+02	 SkittlesFruits2.bmp	 DoritosNatural.bmp	 51	 44	 1	 u	 2	 1	 817.25	 0.42	 0.78	 
BSOV_102	 0	 2	 04	 1	 42	 2.250174e+02	 ChocolateParaCookies5.bmp	 Hit.bmp	 12	 17	 0	 u	 1	 0	 652.75	 4.82	 3.84	 
BSOV_102	 0	 2	 04	 1	 43	 2.300229e+02	 Popco.bmp	 Tortit.bmp	 52	 54	 0	 i	 2	 1	 727.23	 0.38	 0.29	 
BSOV_102	 0	 2	 04	 1	 44	 2.370141e+02	 Twist.bmp	 ClickBlackWhite3.bmp	 8	 10	 1	 i	 1	 0	 807.98	 4.89	 4.84	 
BSOV_102	 0	 2	 04	 1	 45	 2.400174e+02	 Tortit.bmp	 Tictac.bmp	 54	 50	 1	 i	 2	 0	 972.64	 0.29	 0.56	 
BSOV_102	 0	 2	 04	 1	 46	 2.430208e+02	 Loacker.bmp	 Bamba.bmp	 18	 16	 0	 u	 1	 0	 625.30	 3.84	 3.89	 
BSOV_102	 0	 2	 04	 1	 47	 2.460242e+02	 Egozi.bmp	 Hit.bmp	 15	 17	 0	 i	 1	 1	 845.92	 3.93	 3.84	 
BSOV_102	 0	 2	 04	 1	 48	 2.530154e+02	 PesekZman.bmp	 Loacker.bmp	 14	 18	 1	 i	 1	 0	 654.74	 4.04	 3.84	 
BSOV_102	 0	 2	 04	 1	 49	 2.560188e+02	 SkittlesFruits2.bmp	 KashitSour.bmp	 51	 47	 1	 u	 2	 1	 667.35	 0.42	 0.62	 
BSOV_102	 0	 2	 04	 1	 50	 2.590221e+02	 DoritosGrill.bmp	 Tictac.bmp	 43	 50	 1	 i	 2	 0	 760.00	 0.91	 0.56	 
BSOV_102	 0	 2	 04	 1	 51	 2.620255e+02	 Bamba.bmp	 ClickBlackWhite3.bmp	 16	 10	 1	 i	 1	 0	 564.56	 3.89	 4.84	 
BSOV_102	 0	 2	 04	 1	 52	 2.650118e+02	 Loacker.bmp	 Hit.bmp	 18	 17	 0	 i	 1	 1	 650.26	 3.84	 3.84	 
BSOV_102	 0	 2	 04	 1	 53	 2.730211e+02	 Tictac.bmp	 BisliOnion.bmp	 50	 48	 0	 u	 2	 0	 808.96	 0.56	 0.60	 
BSOV_102	 0	 2	 04	 1	 54	 2.790278e+02	 DoritosSourSpicy.bmp	 Taami.bmp	 56	 6	 0	 i	 4	 1	 674.26	 0.27	 5.13	 
BSOV_102	 0	 2	 04	 1	 55	 2.820145e+02	 Mentos.bmp	 Popco.bmp	 49	 52	 1	 u	 2	 1	 887.55	 0.58	 0.38	 
BSOV_102	 0	 2	 04	 1	 56	 2.860190e+02	 Twist.bmp	 ClickXLbrown4.bmp	 8	 7	 1	 i	 1	 0	 883.05	 4.89	 4.93	 
BSOV_102	 0	 2	 04	 1	 57	 2.890224e+02	 ClickXLbrown4.bmp	 ClickXLwhite4.bmp	 7	 9	 0	 i	 1	 1	 655.66	 4.93	 4.84	 
BSOV_102	 0	 2	 04	 1	 58	 2.950124e+02	 KashitSour.bmp	 Mentos.bmp	 47	 49	 0	 i	 2	 1	 665.69	 0.62	 0.58	 
BSOV_102	 0	 2	 04	 1	 59	 2.980158e+02	 Keifli.bmp	 BisliOnion.bmp	 45	 48	 0	 i	 2	 1	 998.27	 0.73	 0.60	 
BSOV_102	 0	 2	 04	 1	 60	 3.040226e+02	 DoritosSourSpicy.bmp	 Snickers.bmp	 56	 5	 0	 i	 4	 1	 647.54	 0.27	 5.49	 
BSOV_102	 0	 2	 04	 1	 61	 3.130159e+02	 ClickBlackWhite3.bmp	 PesekZman.bmp	 10	 14	 0	 i	 1	 1	 566.18	 4.84	 4.04	 
BSOV_102	 0	 2	 04	 1	 62	 3.160194e+02	 Hit.bmp	 ClickBlackWhite3.bmp	 17	 10	 1	 i	 1	 0	 706.70	 3.84	 4.84	 
BSOV_102	 0	 2	 04	 1	 63	 3.190227e+02	 PesekZman.bmp	 Egozi.bmp	 14	 15	 1	 i	 1	 0	 1063.36	 4.04	 3.93	 
BSOV_102	 0	 2	 04	 1	 64	 3.250128e+02	 Loacker.bmp	 ClickXLwhite4.bmp	 18	 9	 0	 i	 1	 1	 625.25	 3.84	 4.84	 
BSOV_102	 0	 2	 04	 1	 65	 3.300184e+02	 ChocolateParaCookies5.bmp	 Twist.bmp	 12	 8	 0	 u	 1	 0	 907.68	 4.82	 4.89	 
BSOV_102	 0	 2	 04	 1	 66	 3.330217e+02	 Snickers.bmp	 BabyDoll.bmp	 5	 55	 1	 u	 4	 1	 784.38	 5.49	 0.29	 
BSOV_102	 0	 2	 04	 1	 67	 3.390115e+02	 ClickXLwhite4.bmp	 ChocolateParaCookies5.bmp	 9	 12	 1	 i	 1	 0	 898.58	 4.84	 4.82	 
BSOV_102	 0	 2	 04	 1	 68	 3.420151e+02	 ClickXLwhite4.bmp	 Egozi.bmp	 9	 15	 1	 u	 1	 1	 614.95	 4.84	 3.93	 
BSOV_102	 0	 2	 04	 1	 69	 3.450185e+02	 Tortit.bmp	 Keifli.bmp	 54	 45	 1	 i	 2	 0	 755.57	 0.29	 0.73	 
BSOV_102	 0	 2	 04	 1	 70	 3.490231e+02	 ClickXLbrown4.bmp	 PesekZman.bmp	 7	 14	 0	 u	 1	 0	 671.05	 4.93	 4.04	 
BSOV_102	 0	 2	 04	 1	 71	 3.530275e+02	 ClickXLwhite4.bmp	 KinderJoy.bmp	 9	 13	 1	 i	 1	 0	 650.57	 4.84	 4.31	 
BSOV_102	 0	 2	 04	 1	 72	 3.580164e+02	 Popco.bmp	 DoritosGrill.bmp	 52	 43	 0	 u	 2	 0	 925.67	 0.38	 0.91	 
BSOV_102	 0	 2	 04	 1	 73	 3.650243e+02	 BambaSweet.bmp	 Tictac.bmp	 46	 50	 1	 i	 2	 0	 965.76	 0.69	 0.56	 
BSOV_102	 0	 2	 04	 1	 74	 3.710144e+02	 Smarties.bmp	 SkittlesFruits2.bmp	 53	 51	 0	 u	 2	 0	 1311.72	 0.31	 0.42	 
BSOV_102	 0	 2	 04	 1	 75	 3.750188e+02	 KinderJoy.bmp	 Bamba.bmp	 13	 16	 0	 u	 1	 0	 739.28	 4.31	 3.89	 
BSOV_102	 0	 2	 04	 1	 76	 3.780222e+02	 BisliOnion.bmp	 Popco.bmp	 48	 52	 1	 u	 2	 1	 887.85	 0.60	 0.38	 
