subjectID	scanner	order	block	run	trial	onsettime	ImageLeft	ImageRight	bidIndexLeft	bidIndexRight	IsleftGo	Response	PairType	Outcome	RT	bidLeft	bidRight	
BOA_132	 0	 2	 04	 1	 1	 2.018843e+00	 KashitSour.bmp	 Kitkat.bmp	 14	 13	 1	 u	 1	 1	 780.84	 4.91	 4.93	 
BOA_132	 0	 2	 04	 1	 2	 6.023336e+00	 Tortit.bmp	 CrunchShokoVanil.bmp	 46	 47	 1	 u	 2	 1	 584.34	 2.69	 1.73	 
BOA_132	 0	 2	 04	 1	 3	 1.001112e+01	 Shugi.bmp	 BisliGrill.bmp	 52	 49	 0	 i	 2	 1	 668.56	 1.67	 1.71	 
BOA_132	 0	 2	 04	 1	 4	 1.501669e+01	 ClickBalls5.bmp	 HispusimShatiah.bmp	 10	 8	 0	 u	 1	 0	 807.01	 5.93	 5.96	 
BOA_132	 0	 2	 04	 1	 5	 2.401008e+01	 CrunchShokoVanil.bmp	 BisliGrill.bmp	 47	 49	 0	 i	 2	 1	 949.60	 1.73	 1.71	 
BOA_132	 0	 2	 04	 1	 6	 2.801466e+01	 BisliGrill.bmp	 Dubonim.bmp	 49	 45	 1	 u	 2	 1	 513.02	 1.71	 2.71	 
BOA_132	 0	 2	 04	 1	 7	 3.702471e+01	 Bamba.bmp	 GumiSnakes3.bmp	 44	 48	 0	 i	 2	 1	 638.97	 2.71	 1.71	 
BOA_132	 0	 2	 04	 1	 8	 4.301477e+01	 Dubonim.bmp	 GumiSnakes3.bmp	 45	 48	 0	 i	 2	 1	 672.91	 2.71	 1.71	 
BOA_132	 0	 2	 04	 1	 9	 4.701929e+01	 Smarties.bmp	 GumiSnakes3.bmp	 50	 48	 0	 i	 2	 1	 540.39	 1.67	 1.71	 
BOA_132	 0	 2	 04	 1	 10	 5.002256e+01	 Keifli.bmp	 CrunchBisquitWhite2.bmp	 55	 6	 0	 i	 4	 1	 569.12	 1.60	 6.00	 
BOA_132	 0	 2	 04	 1	 11	 5.401037e+01	 ChocolateParaSucariotKoftzot2.bmp	 KinderBuenoWhite2.bmp	 7	 11	 0	 i	 1	 1	 453.29	 5.96	 5.38	 
BOA_132	 0	 2	 04	 1	 12	 6.302045e+01	 Cheetos.bmp	 ChocolateParaCookies5.bmp	 18	 9	 0	 i	 1	 1	 459.24	 4.87	 5.93	 
BOA_132	 0	 2	 04	 1	 13	 6.602387e+01	 Cheetos.bmp	 HispusimShatiah.bmp	 18	 8	 0	 i	 1	 1	 519.81	 4.87	 5.96	 
BOA_132	 0	 2	 04	 1	 14	 6.901051e+01	 Kitkat.bmp	 HispusimShatiah.bmp	 13	 8	 0	 i	 1	 1	 541.18	 4.93	 5.96	 
BOA_132	 0	 2	 04	 1	 15	 7.201388e+01	 Taami.bmp	 Mars.bmp	 15	 16	 0	 i	 1	 1	 1121.80	 4.91	 4.89	 
BOA_132	 0	 2	 04	 1	 16	 7.701952e+01	 Bamba.bmp	 BisliGrill.bmp	 44	 49	 0	 i	 2	 1	 572.16	 2.71	 1.71	 
BOA_132	 0	 2	 04	 1	 17	 8.002283e+01	 KinderBuenoWhite2.bmp	 Taami.bmp	 11	 15	 1	 u	 1	 1	 632.86	 5.38	 4.91	 
BOA_132	 0	 2	 04	 1	 18	 8.401068e+01	 Bamba.bmp	 DoritosSourSpicy.bmp	 44	 43	 0	 i	 2	 1	 421.00	 2.71	 2.71	 
BOA_132	 0	 2	 04	 1	 19	 8.901628e+01	 ChocolateParaSucariotKoftzot2.bmp	 Snickers.bmp	 7	 17	 0	 i	 1	 1	 631.40	 5.96	 4.87	 
BOA_132	 0	 2	 04	 1	 20	 9.901071e+01	 Tortit.bmp	 Smarties.bmp	 46	 50	 1	 u	 2	 1	 644.96	 2.69	 1.67	 
BOA_132	 0	 2	 04	 1	 21	 1.030153e+02	 Smarties.bmp	 Halva2.bmp	 50	 51	 0	 i	 2	 1	 504.39	 1.67	 1.67	 
BOA_132	 0	 2	 04	 1	 22	 1.100230e+02	 Cheetos.bmp	 Mars.bmp	 18	 16	 0	 i	 1	 1	 528.64	 4.87	 4.89	 
BOA_132	 0	 2	 04	 1	 23	 1.140109e+02	 Taami.bmp	 KashitSour.bmp	 15	 14	 0	 i	 1	 1	 468.77	 4.91	 4.91	 
BOA_132	 0	 2	 04	 1	 24	 1.180154e+02	 Kitkat.bmp	 Snickers.bmp	 13	 17	 0	 i	 1	 1	 488.28	 4.93	 4.87	 
BOA_132	 0	 2	 04	 1	 25	 1.210187e+02	 Kitkat.bmp	 ChocolateParaCookies5.bmp	 13	 9	 0	 i	 1	 1	 493.00	 4.93	 5.93	 
BOA_132	 0	 2	 04	 1	 26	 1.260244e+02	 DoritosSourSpicy.bmp	 Bounty.bmp	 43	 53	 1	 u	 2	 1	 535.36	 2.71	 1.64	 
BOA_132	 0	 2	 04	 1	 27	 1.310132e+02	 Snickers.bmp	 ClickBalls5.bmp	 17	 10	 1	 i	 1	 0	 578.43	 4.87	 5.93	 
BOA_132	 0	 2	 04	 1	 28	 1.390223e+02	 ClickBalls5.bmp	 Mars.bmp	 10	 16	 0	 u	 1	 0	 801.41	 5.93	 4.89	 
BOA_132	 0	 2	 04	 1	 29	 1.420256e+02	 KinderBuenoWhite2.bmp	 Kitkat.bmp	 11	 13	 1	 i	 1	 0	 406.05	 5.38	 4.93	 
BOA_132	 0	 2	 04	 1	 30	 1.490167e+02	 GumiSnakes3.bmp	 Bounty.bmp	 48	 53	 1	 u	 2	 1	 622.97	 1.71	 1.64	 
BOA_132	 0	 2	 04	 1	 31	 1.550235e+02	 BisliPizza3.bmp	 Shugi.bmp	 54	 52	 1	 i	 2	 0	 904.19	 1.64	 1.67	 
BOA_132	 0	 2	 04	 1	 32	 1.600124e+02	 KashitSour.bmp	 Cheetos.bmp	 14	 18	 1	 u	 1	 1	 811.31	 4.91	 4.87	 
BOA_132	 0	 2	 04	 1	 33	 1.640169e+02	 ChocolateParaCookies5.bmp	 Taami.bmp	 9	 15	 1	 u	 1	 1	 566.82	 5.93	 4.91	 
BOA_132	 0	 2	 04	 1	 34	 1.700236e+02	 HispusimShatiah.bmp	 KifkefMaklot2.bmp	 8	 12	 1	 u	 1	 1	 704.14	 5.96	 4.93	 
BOA_132	 0	 2	 04	 1	 35	 1.740115e+02	 ChocolateParaCookies5.bmp	 ChocolateParaSucariotKoftzot2.bmp	 9	 7	 1	 u	 1	 1	 484.22	 5.93	 5.96	 
BOA_132	 0	 2	 04	 1	 36	 1.780160e+02	 Smarties.bmp	 BisliPizza3.bmp	 50	 54	 0	 i	 2	 1	 1023.76	 1.67	 1.64	 
BOA_132	 0	 2	 04	 1	 37	 1.840226e+02	 ChocolateParaCookies5.bmp	 KifkefMaklot2.bmp	 9	 12	 1	 u	 1	 1	 513.09	 5.93	 4.93	 
BOA_132	 0	 2	 04	 1	 38	 1.940171e+02	 BisliGrill.bmp	 Smarties.bmp	 49	 50	 1	 i	 2	 0	 622.57	 1.71	 1.67	 
BOA_132	 0	 2	 04	 1	 39	 1.980216e+02	 GumiSnakes3.bmp	 CrunchShokoVanil.bmp	 48	 47	 1	 u	 2	 1	 474.07	 1.71	 1.73	 
BOA_132	 0	 2	 04	 1	 40	 2.050128e+02	 Bounty.bmp	 BisliPizza3.bmp	 53	 54	 0	 i	 2	 1	 650.92	 1.64	 1.64	 
BOA_132	 0	 2	 04	 1	 41	 2.080161e+02	 DoritosSourSpicy.bmp	 Smarties.bmp	 43	 50	 1	 u	 2	 1	 543.54	 2.71	 1.67	 
BOA_132	 0	 2	 04	 1	 42	 2.120206e+02	 KifkefMaklot2.bmp	 KinderBuenoWhite2.bmp	 12	 11	 0	 i	 1	 1	 723.07	 4.93	 5.38	 
BOA_132	 0	 2	 04	 1	 43	 2.190118e+02	 Mars.bmp	 Kitkat.bmp	 16	 13	 1	 i	 1	 0	 619.91	 4.89	 4.93	 
BOA_132	 0	 2	 04	 1	 44	 2.230162e+02	 HispusimShatiah.bmp	 Taami.bmp	 8	 15	 1	 i	 1	 0	 655.44	 5.96	 4.91	 
BOA_132	 0	 2	 04	 1	 45	 2.280218e+02	 KifkefMaklot2.bmp	 KashitSour.bmp	 12	 14	 0	 u	 1	 0	 513.87	 4.93	 4.91	 
BOA_132	 0	 2	 04	 1	 46	 2.310252e+02	 Dubonim.bmp	 Tortit.bmp	 45	 46	 0	 i	 2	 1	 470.45	 2.71	 2.69	 
BOA_132	 0	 2	 04	 1	 47	 2.360142e+02	 Bounty.bmp	 Halva2.bmp	 53	 51	 0	 i	 2	 1	 577.52	 1.64	 1.67	 
BOA_132	 0	 2	 04	 1	 48	 2.390174e+02	 ChocolateParaCookies5.bmp	 ClickBalls5.bmp	 9	 10	 1	 i	 1	 0	 662.24	 5.93	 5.93	 
BOA_132	 0	 2	 04	 1	 49	 2.480109e+02	 CrunchBisquitWhite2.bmp	 BabyDoll.bmp	 6	 56	 1	 u	 4	 1	 876.82	 6.00	 0.62	 
BOA_132	 0	 2	 04	 1	 50	 2.520154e+02	 ChocolateParaSucariotKoftzot2.bmp	 KashitSour.bmp	 7	 14	 0	 i	 1	 1	 440.32	 5.96	 4.91	 
BOA_132	 0	 2	 04	 1	 51	 2.590232e+02	 ClickBalls5.bmp	 KinderBuenoWhite2.bmp	 10	 11	 0	 u	 1	 0	 624.50	 5.93	 5.38	 
BOA_132	 0	 2	 04	 1	 52	 2.680166e+02	 Snickers.bmp	 KifkefMaklot2.bmp	 17	 12	 1	 u	 1	 1	 871.07	 4.87	 4.93	 
BOA_132	 0	 2	 04	 1	 53	 2.720211e+02	 Bamba.bmp	 BisliPizza3.bmp	 44	 54	 0	 u	 2	 0	 1018.57	 2.71	 1.64	 
BOA_132	 0	 2	 04	 1	 54	 2.760256e+02	 DoritosSourSpicy.bmp	 CrunchShokoVanil.bmp	 43	 47	 1	 u	 2	 1	 478.09	 2.71	 1.73	 
BOA_132	 0	 2	 04	 1	 55	 2.790123e+02	 Halva2.bmp	 Shugi.bmp	 51	 52	 1	 u	 2	 1	 667.41	 1.67	 1.67	 
BOA_132	 0	 2	 04	 1	 56	 2.880223e+02	 Cheetos.bmp	 Snickers.bmp	 18	 17	 0	 u	 1	 0	 849.40	 4.87	 4.87	 
BOA_132	 0	 2	 04	 1	 57	 2.960146e+02	 HispusimShatiah.bmp	 ChocolateParaSucariotKoftzot2.bmp	 8	 7	 1	 i	 1	 0	 641.05	 5.96	 5.96	 
BOA_132	 0	 2	 04	 1	 58	 3.040236e+02	 Tortit.bmp	 Bounty.bmp	 46	 53	 1	 u	 2	 1	 528.04	 2.69	 1.64	 
BOA_132	 0	 2	 04	 1	 59	 3.070100e+02	 KifkefMaklot2.bmp	 Mars.bmp	 12	 16	 0	 i	 1	 1	 909.67	 4.93	 4.89	 
BOA_132	 0	 2	 04	 1	 60	 3.110147e+02	 Dubonim.bmp	 DoritosSourSpicy.bmp	 45	 43	 0	 u	 2	 0	 585.02	 2.71	 2.71	 
BOA_132	 0	 2	 04	 1	 61	 3.150192e+02	 BisliGrill.bmp	 Bounty.bmp	 49	 53	 1	 u	 2	 1	 596.46	 1.71	 1.64	 
BOA_132	 0	 2	 04	 1	 62	 3.180226e+02	 DoritosSourSpicy.bmp	 Shugi.bmp	 43	 52	 1	 u	 2	 1	 497.07	 2.71	 1.67	 
BOA_132	 0	 2	 04	 1	 63	 3.220104e+02	 Snickers.bmp	 Taami.bmp	 17	 15	 1	 u	 1	 1	 525.31	 4.87	 4.91	 
BOA_132	 0	 2	 04	 1	 64	 3.260148e+02	 BisliPizza3.bmp	 Dubonim.bmp	 54	 45	 1	 u	 2	 1	 504.84	 1.64	 2.71	 
BOA_132	 0	 2	 04	 1	 65	 3.310204e+02	 Halva2.bmp	 CrunchShokoVanil.bmp	 51	 47	 1	 u	 2	 1	 627.28	 1.67	 1.73	 
BOA_132	 0	 2	 04	 1	 66	 3.340239e+02	 CrunchBisquitBrown3.bmp	 BabyDoll.bmp	 5	 56	 1	 u	 4	 1	 591.82	 6.02	 0.62	 
BOA_132	 0	 2	 04	 1	 67	 3.420161e+02	 Tortit.bmp	 Shugi.bmp	 46	 52	 1	 u	 2	 1	 479.59	 2.69	 1.67	 
BOA_132	 0	 2	 04	 1	 68	 3.450195e+02	 Shugi.bmp	 GumiSnakes3.bmp	 52	 48	 0	 u	 2	 0	 348.22	 1.67	 1.71	 
BOA_132	 0	 2	 04	 1	 69	 3.500250e+02	 Halva2.bmp	 Dubonim.bmp	 51	 45	 1	 u	 2	 1	 462.68	 1.67	 2.71	 
BOA_132	 0	 2	 04	 1	 70	 3.550140e+02	 CrunchBisquitBrown3.bmp	 Keifli.bmp	 5	 55	 1	 u	 4	 1	 473.67	 6.02	 1.60	 
BOA_132	 0	 2	 04	 1	 71	 3.580174e+02	 Bamba.bmp	 Halva2.bmp	 44	 51	 0	 u	 2	 0	 414.29	 2.71	 1.67	 
BOA_132	 0	 2	 04	 1	 72	 3.610207e+02	 Bamba.bmp	 Tortit.bmp	 44	 46	 0	 u	 2	 0	 459.03	 2.71	 2.69	 
BOA_132	 0	 2	 04	 1	 73	 3.640241e+02	 Mars.bmp	 ChocolateParaSucariotKoftzot2.bmp	 16	 7	 1	 u	 1	 1	 631.59	 4.89	 5.96	 
BOA_132	 0	 2	 04	 1	 74	 3.690129e+02	 Cheetos.bmp	 KinderBuenoWhite2.bmp	 18	 11	 0	 i	 1	 1	 458.76	 4.87	 5.38	 
BOA_132	 0	 2	 04	 1	 75	 3.730175e+02	 CrunchShokoVanil.bmp	 BisliPizza3.bmp	 47	 54	 0	 i	 2	 1	 1254.20	 1.73	 1.64	 
BOA_132	 0	 2	 04	 1	 76	 3.780231e+02	 KashitSour.bmp	 ClickBalls5.bmp	 14	 10	 1	 u	 1	 1	 424.62	 4.91	 5.93	 
