subjectID	scanner	order	block	run	trial	onsettime	ImageLeft	ImageRight	bidIndexLeft	bidIndexRight	IsleftGo	Response	PairType	Outcome	RT	bidLeft	bidRight	
BOA_102	 0	 2	 04	 1	 1	 2.018857e+00	 GumiSnakes3.bmp	 Hit.bmp	 44	 48	 0	 i	 2	 1	 911.16	 2.64	 2.60	 
BOA_102	 0	 2	 04	 1	 2	 1.001112e+01	 Tapuchips.bmp	 TapuchipsCrunch.bmp	 50	 46	 0	 u	 2	 0	 1486.86	 2.56	 2.62	 
BOA_102	 0	 2	 04	 1	 3	 1.401690e+01	 CrunchShokoVanil.bmp	 ClickBalls5.bmp	 15	 8	 0	 i	 1	 1	 929.10	 5.47	 5.91	 
BOA_102	 0	 2	 04	 1	 4	 1.902116e+01	 BisliOnion.bmp	 BambaSweet.bmp	 54	 47	 1	 i	 2	 0	 1196.82	 1.62	 2.60	 
BOA_102	 0	 2	 04	 1	 5	 2.801466e+01	 ClickBalls5.bmp	 KinderBuenoBrown3.bmp	 8	 7	 1	 i	 1	 0	 603.33	 5.91	 5.96	 
BOA_102	 0	 2	 04	 1	 6	 3.302016e+01	 BambaNugat.bmp	 CrunchBisquitWhite2.bmp	 14	 13	 1	 i	 1	 0	 549.83	 5.49	 5.58	 
BOA_102	 0	 2	 04	 1	 7	 3.602355e+01	 Mentos.bmp	 DoritosGrill.bmp	 51	 45	 1	 u	 2	 1	 1378.48	 2.13	 2.64	 
BOA_102	 0	 2	 04	 1	 8	 4.001137e+01	 CrunchBisquitWhite2.bmp	 Tortit.bmp	 13	 17	 0	 u	 1	 0	 662.63	 5.58	 5.27	 
BOA_102	 0	 2	 04	 1	 9	 4.401582e+01	 HispusimShatiah.bmp	 Hit.bmp	 52	 48	 0	 i	 2	 1	 754.17	 1.69	 2.60	 
BOA_102	 0	 2	 04	 1	 10	 4.701926e+01	 Bamba.bmp	 CrunchBisquitWhite2.bmp	 11	 13	 1	 i	 1	 0	 662.74	 5.84	 5.58	 
BOA_102	 0	 2	 04	 1	 11	 5.200790e+01	 CrunchShokoVanil.bmp	 BambaNugat.bmp	 15	 14	 0	 i	 1	 1	 610.09	 5.47	 5.49	 
BOA_102	 0	 2	 04	 1	 12	 5.901599e+01	 BambaNugat.bmp	 ClickBisquit2.bmp	 14	 10	 1	 u	 1	 1	 866.01	 5.49	 5.87	 
BOA_102	 0	 2	 04	 1	 13	 6.700796e+01	 KinderJoy.bmp	 DoritosGrill.bmp	 43	 45	 1	 u	 2	 1	 562.03	 2.64	 2.64	 
BOA_102	 0	 2	 04	 1	 14	 7.001161e+01	 Cheetos.bmp	 BabyDoll.bmp	 53	 49	 0	 i	 2	 1	 1414.38	 1.67	 2.56	 
BOA_102	 0	 2	 04	 1	 15	 7.501732e+01	 KashitSour.bmp	 ChocolateParaCookies5.bmp	 56	 6	 0	 i	 4	 1	 856.67	 1.60	 5.98	 
BOA_102	 0	 2	 04	 1	 16	 8.401065e+01	 CrunchBisquitBrown3.bmp	 Taami.bmp	 12	 16	 0	 i	 1	 1	 663.35	 5.80	 5.36	 
BOA_102	 0	 2	 04	 1	 17	 8.901632e+01	 Tortit.bmp	 ClickBisquit2.bmp	 17	 10	 1	 u	 1	 1	 673.66	 5.27	 5.87	 
BOA_102	 0	 2	 04	 1	 18	 9.201966e+01	 CrunchBisquitBrown3.bmp	 Bamba.bmp	 12	 11	 0	 i	 1	 1	 526.35	 5.80	 5.84	 
BOA_102	 0	 2	 04	 1	 19	 9.600721e+01	 GumiSnakes3.bmp	 TapuchipsCrunch.bmp	 44	 46	 0	 u	 2	 0	 938.78	 2.64	 2.62	 
BOA_102	 0	 2	 04	 1	 20	 9.901077e+01	 KinderBuenoBrown3.bmp	 BambaNugat.bmp	 7	 14	 0	 i	 1	 1	 631.21	 5.96	 5.49	 
BOA_102	 0	 2	 04	 1	 21	 1.100232e+02	 Mentos.bmp	 Tapuchips.bmp	 51	 50	 1	 u	 2	 1	 1010.80	 2.13	 2.56	 
BOA_102	 0	 2	 04	 1	 22	 1.170144e+02	 KashitSour.bmp	 KinderBuenoWhite2.bmp	 56	 5	 0	 i	 4	 1	 651.63	 1.60	 5.98	 
BOA_102	 0	 2	 04	 1	 23	 1.200177e+02	 BabyDoll.bmp	 DoritosGrill.bmp	 49	 45	 1	 u	 2	 1	 1224.34	 2.56	 2.64	 
BOA_102	 0	 2	 04	 1	 24	 1.300122e+02	 BisliOnion.bmp	 Cheetos.bmp	 54	 53	 1	 i	 2	 0	 1093.75	 1.62	 1.67	 
BOA_102	 0	 2	 04	 1	 25	 1.330156e+02	 Twix.bmp	 BambaNugat.bmp	 18	 14	 0	 i	 1	 1	 1346.43	 4.93	 5.49	 
BOA_102	 0	 2	 04	 1	 26	 1.380212e+02	 ClickBisquit2.bmp	 Taami.bmp	 10	 16	 0	 u	 1	 0	 1420.83	 5.87	 5.36	 
BOA_102	 0	 2	 04	 1	 27	 1.460135e+02	 BambaSweet.bmp	 BabyDoll.bmp	 47	 49	 0	 x	 2	 999	 999000.00	 2.60	 2.56	 
BOA_102	 0	 2	 04	 1	 28	 1.560077e+02	 BambaNugat.bmp	 CrunchBisquitBrown3.bmp	 14	 12	 1	 i	 1	 0	 1242.33	 5.49	 5.80	 
BOA_102	 0	 2	 04	 1	 29	 1.650181e+02	 Cheetos.bmp	 Mentos.bmp	 53	 51	 0	 u	 2	 0	 719.90	 1.67	 2.13	 
BOA_102	 0	 2	 04	 1	 30	 1.680215e+02	 Kitkat.bmp	 CrunchBisquitBrown3.bmp	 9	 12	 1	 u	 1	 1	 1268.52	 5.89	 5.80	 
BOA_102	 0	 2	 04	 1	 31	 1.720093e+02	 Mentos.bmp	 GumiSnakes3.bmp	 51	 44	 1	 u	 2	 1	 1088.71	 2.13	 2.64	 
BOA_102	 0	 2	 04	 1	 32	 1.750126e+02	 ChocolateParaCookies5.bmp	 WerthersOriginal.bmp	 6	 55	 1	 u	 4	 1	 797.40	 5.98	 1.62	 
BOA_102	 0	 2	 04	 1	 33	 1.780159e+02	 Tapuchips.bmp	 BisliOnion.bmp	 50	 54	 0	 u	 2	 0	 1242.04	 2.56	 1.62	 
BOA_102	 0	 2	 04	 1	 34	 1.820204e+02	 WerthersOriginal.bmp	 KinderBuenoWhite2.bmp	 55	 5	 0	 i	 4	 1	 653.59	 1.62	 5.98	 
BOA_102	 0	 2	 04	 1	 35	 1.920150e+02	 ClickBisquit2.bmp	 Kitkat.bmp	 10	 9	 0	 i	 1	 1	 626.98	 5.87	 5.89	 
BOA_102	 0	 2	 04	 1	 36	 2.030107e+02	 ClickBisquit2.bmp	 ClickBalls5.bmp	 10	 8	 0	 u	 1	 0	 1375.30	 5.87	 5.91	 
BOA_102	 0	 2	 04	 1	 37	 2.060140e+02	 Kitkat.bmp	 CrunchShokoVanil.bmp	 9	 15	 1	 u	 1	 1	 980.02	 5.89	 5.47	 
BOA_102	 0	 2	 04	 1	 38	 2.090173e+02	 CrunchBisquitWhite2.bmp	 ClickBalls5.bmp	 13	 8	 0	 u	 1	 0	 616.67	 5.58	 5.91	 
BOA_102	 0	 2	 04	 1	 39	 2.120207e+02	 GumiSnakes3.bmp	 BabyDoll.bmp	 44	 49	 0	 x	 2	 999	 999000.00	 2.64	 2.56	 
BOA_102	 0	 2	 04	 1	 40	 2.180108e+02	 DoritosGrill.bmp	 BisliOnion.bmp	 45	 54	 0	 u	 2	 0	 1175.22	 2.64	 1.62	 
BOA_102	 0	 2	 04	 1	 41	 2.210141e+02	 HispusimShatiah.bmp	 Mentos.bmp	 52	 51	 0	 i	 2	 1	 803.89	 1.69	 2.13	 
BOA_102	 0	 2	 04	 1	 42	 2.250186e+02	 CrunchBisquitWhite2.bmp	 Kitkat.bmp	 13	 9	 0	 u	 1	 0	 711.37	 5.58	 5.89	 
BOA_102	 0	 2	 04	 1	 43	 2.300077e+02	 ClickBalls5.bmp	 Twix.bmp	 8	 18	 1	 i	 1	 0	 594.33	 5.91	 4.93	 
BOA_102	 0	 2	 04	 1	 44	 2.370153e+02	 GumiSnakes3.bmp	 KinderJoy.bmp	 44	 43	 0	 i	 2	 1	 658.66	 2.64	 2.64	 
BOA_102	 0	 2	 04	 1	 45	 2.400188e+02	 Kitkat.bmp	 Twix.bmp	 9	 18	 1	 u	 1	 1	 831.21	 5.89	 4.93	 
BOA_102	 0	 2	 04	 1	 46	 2.430221e+02	 TapuchipsCrunch.bmp	 Cheetos.bmp	 46	 53	 1	 i	 2	 0	 859.85	 2.62	 1.67	 
BOA_102	 0	 2	 04	 1	 47	 2.460255e+02	 CrunchBisquitBrown3.bmp	 ClickBalls5.bmp	 12	 8	 0	 i	 1	 1	 1168.44	 5.80	 5.91	 
BOA_102	 0	 2	 04	 1	 48	 2.530166e+02	 DoritosGrill.bmp	 TapuchipsCrunch.bmp	 45	 46	 0	 u	 2	 0	 1345.37	 2.64	 2.62	 
BOA_102	 0	 2	 04	 1	 49	 2.560201e+02	 Kitkat.bmp	 KinderBuenoBrown3.bmp	 9	 7	 1	 i	 1	 0	 653.92	 5.89	 5.96	 
BOA_102	 0	 2	 04	 1	 50	 2.590234e+02	 BisliOnion.bmp	 GumiSnakes3.bmp	 54	 44	 1	 i	 2	 0	 1162.56	 1.62	 2.64	 
BOA_102	 0	 2	 04	 1	 51	 2.620101e+02	 Cheetos.bmp	 Hit.bmp	 53	 48	 0	 i	 2	 1	 903.93	 1.67	 2.60	 
BOA_102	 0	 2	 04	 1	 52	 2.650134e+02	 BambaSweet.bmp	 KinderJoy.bmp	 47	 43	 0	 i	 2	 1	 524.56	 2.60	 2.64	 
BOA_102	 0	 2	 04	 1	 53	 2.730224e+02	 BabyDoll.bmp	 HispusimShatiah.bmp	 49	 52	 1	 u	 2	 1	 899.55	 2.56	 1.69	 
BOA_102	 0	 2	 04	 1	 54	 2.790125e+02	 KinderBuenoBrown3.bmp	 Taami.bmp	 7	 16	 0	 i	 1	 1	 813.49	 5.96	 5.36	 
BOA_102	 0	 2	 04	 1	 55	 2.820158e+02	 Taami.bmp	 CrunchBisquitWhite2.bmp	 16	 13	 1	 i	 1	 0	 722.18	 5.36	 5.58	 
BOA_102	 0	 2	 04	 1	 56	 2.860203e+02	 Taami.bmp	 CrunchShokoVanil.bmp	 16	 15	 1	 i	 1	 0	 1165.67	 5.36	 5.47	 
BOA_102	 0	 2	 04	 1	 57	 2.890237e+02	 Bamba.bmp	 CrunchShokoVanil.bmp	 11	 15	 1	 i	 1	 0	 682.33	 5.84	 5.47	 
BOA_102	 0	 2	 04	 1	 58	 2.950138e+02	 KinderJoy.bmp	 HispusimShatiah.bmp	 43	 52	 1	 u	 2	 1	 1084.20	 2.64	 1.69	 
BOA_102	 0	 2	 04	 1	 59	 2.980171e+02	 Bamba.bmp	 KinderBuenoBrown3.bmp	 11	 7	 1	 i	 1	 0	 680.91	 5.84	 5.96	 
BOA_102	 0	 2	 04	 1	 60	 3.040069e+02	 Tapuchips.bmp	 Hit.bmp	 50	 48	 0	 i	 2	 1	 851.03	 2.56	 2.60	 
BOA_102	 0	 2	 04	 1	 61	 3.130172e+02	 KinderJoy.bmp	 Cheetos.bmp	 43	 53	 1	 u	 2	 1	 648.79	 2.64	 1.67	 
BOA_102	 0	 2	 04	 1	 62	 3.160206e+02	 Bamba.bmp	 ClickBisquit2.bmp	 11	 10	 1	 u	 1	 1	 765.43	 5.84	 5.87	 
BOA_102	 0	 2	 04	 1	 63	 3.190070e+02	 Mentos.bmp	 BambaSweet.bmp	 51	 47	 1	 i	 2	 0	 978.95	 2.13	 2.60	 
BOA_102	 0	 2	 04	 1	 64	 3.250140e+02	 HispusimShatiah.bmp	 TapuchipsCrunch.bmp	 52	 46	 0	 x	 2	 999	 999000.00	 1.69	 2.62	 
BOA_102	 0	 2	 04	 1	 65	 3.300196e+02	 Tortit.bmp	 CrunchBisquitBrown3.bmp	 17	 12	 1	 i	 1	 0	 1350.43	 5.27	 5.80	 
BOA_102	 0	 2	 04	 1	 66	 3.330229e+02	 TapuchipsCrunch.bmp	 BambaSweet.bmp	 46	 47	 1	 i	 2	 0	 1083.08	 2.62	 2.60	 
BOA_102	 0	 2	 04	 1	 67	 3.390130e+02	 Hit.bmp	 DoritosGrill.bmp	 48	 45	 1	 u	 2	 1	 781.00	 2.60	 2.64	 
BOA_102	 0	 2	 04	 1	 68	 3.420164e+02	 BisliOnion.bmp	 HispusimShatiah.bmp	 54	 52	 1	 i	 2	 0	 1337.56	 1.62	 1.69	 
BOA_102	 0	 2	 04	 1	 69	 3.450197e+02	 CrunchShokoVanil.bmp	 Tortit.bmp	 15	 17	 0	 i	 1	 1	 1198.30	 5.47	 5.27	 
BOA_102	 0	 2	 04	 1	 70	 3.490072e+02	 Bamba.bmp	 Twix.bmp	 11	 18	 1	 i	 1	 0	 1298.79	 5.84	 4.93	 
BOA_102	 0	 2	 04	 1	 71	 3.530121e+02	 Tapuchips.bmp	 BabyDoll.bmp	 50	 49	 0	 i	 2	 1	 813.93	 2.56	 2.56	 
BOA_102	 0	 2	 04	 1	 72	 3.580176e+02	 Taami.bmp	 Twix.bmp	 16	 18	 1	 u	 1	 1	 712.41	 5.36	 4.93	 
BOA_102	 0	 2	 04	 1	 73	 3.650088e+02	 KinderJoy.bmp	 Tapuchips.bmp	 43	 50	 1	 u	 2	 1	 529.17	 2.64	 2.56	 
BOA_102	 0	 2	 04	 1	 74	 3.710156e+02	 Twix.bmp	 Tortit.bmp	 18	 17	 0	 i	 1	 1	 938.43	 4.93	 5.27	 
BOA_102	 0	 2	 04	 1	 75	 3.750201e+02	 Hit.bmp	 BambaSweet.bmp	 48	 47	 1	 u	 2	 1	 1005.91	 2.60	 2.60	 
BOA_102	 0	 2	 04	 1	 76	 3.780234e+02	 KinderBuenoBrown3.bmp	 Tortit.bmp	 7	 17	 0	 i	 1	 1	 1330.57	 5.96	 5.27	 
