subjectID	 scanner	 order	 block	 run	 trial	 onsettime	 ImageLeft	 ImageRight	 bidIndexLeft	 bidIndexRight	 IsleftGo	 Response	 PairType	 Outcome	 RT	 bidLeft	 bidRight	 
BMI_bfr_103	 0	 1	 01	 2	 1	 2.018431e+00	 105.jpg	 139.jpg	 24	 56	 1	 u	 3	 1	 530.67	 0.60	 0.18	 
BMI_bfr_103	 0	 1	 01	 2	 2	 8.008467e+00	 128.jpg	 114.jpg	 15	 14	 1	 i	 1	 0	 852.21	 0.69	 0.69	 
BMI_bfr_103	 0	 1	 01	 2	 3	 1.101182e+01	 159.jpg	 148.jpg	 52	 49	 1	 i	 2	 0	 1190.22	 0.23	 0.28	 
BMI_bfr_103	 0	 1	 01	 2	 4	 1.401519e+01	 157.jpg	 140.jpg	 16	 10	 0	 i	 1	 1	 1269.49	 0.69	 0.74	 
BMI_bfr_103	 0	 1	 01	 2	 5	 1.701854e+01	 146.jpg	 160.jpg	 22	 13	 0	 i	 1	 1	 1258.83	 0.61	 0.70	 
BMI_bfr_103	 0	 1	 01	 2	 6	 2.100633e+01	 111.jpg	 104.jpg	 25	 37	 1	 u	 3	 1	 657.42	 0.58	 0.42	 
BMI_bfr_103	 0	 1	 01	 2	 7	 2.901530e+01	 157.jpg	 160.jpg	 16	 13	 0	 u	 1	 0	 895.08	 0.69	 0.70	 
BMI_bfr_103	 0	 1	 01	 2	 8	 3.402089e+01	 119.jpg	 135.jpg	 39	 54	 1	 i	 2	 0	 997.21	 0.40	 0.21	 
BMI_bfr_103	 0	 1	 01	 2	 9	 3.900981e+01	 114.jpg	 154.jpg	 14	 7	 0	 i	 1	 1	 992.26	 0.69	 0.76	 
BMI_bfr_103	 0	 1	 01	 2	 10	 4.201316e+01	 113.jpg	 150.jpg	 20	 11	 1	 u	 1	 1	 869.05	 0.63	 0.74	 
BMI_bfr_103	 0	 1	 01	 2	 11	 4.501651e+01	 127.jpg	 107.jpg	 21	 19	 1	 u	 1	 1	 959.59	 0.63	 0.65	 
BMI_bfr_103	 0	 1	 01	 2	 12	 5.100655e+01	 151.jpg	 136.jpg	 40	 44	 0	 u	 2	 0	 954.80	 0.39	 0.32	 
BMI_bfr_103	 0	 1	 01	 2	 13	 5.501104e+01	 110.jpg	 105.jpg	 36	 24	 0	 u	 3	 0	 1113.00	 0.46	 0.60	 
BMI_bfr_103	 0	 1	 01	 2	 14	 5.801439e+01	 154.jpg	 155.jpg	 7	 17	 1	 i	 1	 0	 1361.06	 0.76	 0.66	 
BMI_bfr_103	 0	 1	 01	 2	 15	 6.301999e+01	 147.jpg	 130.jpg	 38	 6	 0	 i	 4	 1	 675.65	 0.40	 0.82	 
BMI_bfr_103	 0	 1	 01	 2	 16	 7.001114e+01	 143.jpg	 157.jpg	 18	 16	 1	 u	 1	 1	 1199.86	 0.66	 0.69	 
BMI_bfr_103	 0	 1	 01	 2	 17	 7.301450e+01	 127.jpg	 121.jpg	 21	 8	 1	 u	 1	 1	 1087.93	 0.63	 0.76	 
BMI_bfr_103	 0	 1	 01	 2	 18	 8.200789e+01	 127.jpg	 150.jpg	 21	 11	 1	 u	 1	 1	 1072.40	 0.63	 0.74	 
BMI_bfr_103	 0	 1	 01	 2	 19	 8.501125e+01	 158.jpg	 122.jpg	 58	 26	 0	 i	 4	 1	 735.40	 0.10	 0.56	 
BMI_bfr_103	 0	 1	 01	 2	 20	 9.101797e+01	 158.jpg	 126.jpg	 58	 23	 0	 i	 4	 1	 803.94	 0.10	 0.60	 
BMI_bfr_103	 0	 1	 01	 2	 21	 9.600689e+01	 127.jpg	 137.jpg	 21	 9	 1	 i	 1	 0	 1046.50	 0.63	 0.74	 
BMI_bfr_103	 0	 1	 01	 2	 22	 9.901023e+01	 119.jpg	 149.jpg	 39	 48	 1	 i	 2	 0	 934.55	 0.40	 0.28	 
BMI_bfr_103	 0	 1	 01	 2	 23	 1.060181e+02	 110.jpg	 152.jpg	 36	 5	 0	 i	 3	 1	 733.28	 0.46	 0.82	 
BMI_bfr_103	 0	 1	 01	 2	 24	 1.110070e+02	 154.jpg	 137.jpg	 7	 9	 1	 u	 1	 1	 1009.60	 0.76	 0.74	 
BMI_bfr_103	 0	 1	 01	 2	 25	 1.170137e+02	 140.jpg	 146.jpg	 10	 22	 1	 u	 1	 1	 796.88	 0.74	 0.61	 
BMI_bfr_103	 0	 1	 01	 2	 26	 1.210182e+02	 128.jpg	 107.jpg	 15	 19	 1	 i	 1	 0	 1123.90	 0.69	 0.65	 
BMI_bfr_103	 0	 1	 01	 2	 27	 1.250060e+02	 159.jpg	 135.jpg	 52	 54	 1	 i	 2	 0	 1265.03	 0.23	 0.21	 
BMI_bfr_103	 0	 1	 01	 2	 28	 1.280093e+02	 137.jpg	 113.jpg	 9	 20	 0	 u	 1	 0	 759.25	 0.74	 0.63	 
BMI_bfr_103	 0	 1	 01	 2	 29	 1.310127e+02	 122.jpg	 153.jpg	 26	 35	 1	 u	 4	 1	 1063.54	 0.56	 0.47	 
BMI_bfr_103	 0	 1	 01	 2	 30	 1.360183e+02	 134.jpg	 146.jpg	 12	 22	 1	 u	 1	 1	 816.94	 0.71	 0.61	 
BMI_bfr_103	 0	 1	 01	 2	 31	 1.400061e+02	 132.jpg	 108.jpg	 46	 42	 0	 i	 2	 1	 868.07	 0.30	 0.39	 
BMI_bfr_103	 0	 1	 01	 2	 32	 1.430094e+02	 128.jpg	 137.jpg	 15	 9	 1	 u	 1	 1	 1149.85	 0.69	 0.74	 
BMI_bfr_103	 0	 1	 01	 2	 33	 1.480150e+02	 128.jpg	 146.jpg	 15	 22	 1	 i	 1	 0	 948.23	 0.69	 0.61	 
BMI_bfr_103	 0	 1	 01	 2	 34	 1.510184e+02	 155.jpg	 113.jpg	 17	 20	 0	 i	 1	 1	 1308.77	 0.66	 0.63	 
BMI_bfr_103	 0	 1	 01	 2	 35	 1.550062e+02	 159.jpg	 132.jpg	 52	 46	 1	 u	 2	 1	 1326.14	 0.23	 0.30	 
BMI_bfr_103	 0	 1	 01	 2	 36	 1.680207e+02	 150.jpg	 140.jpg	 11	 10	 0	 i	 1	 1	 923.43	 0.74	 0.74	 
BMI_bfr_103	 0	 1	 01	 2	 37	 1.740108e+02	 150.jpg	 134.jpg	 11	 12	 0	 i	 1	 1	 1109.93	 0.74	 0.71	 
BMI_bfr_103	 0	 1	 01	 2	 38	 1.790164e+02	 157.jpg	 113.jpg	 16	 20	 0	 u	 1	 0	 885.80	 0.69	 0.63	 
BMI_bfr_103	 0	 1	 01	 2	 39	 1.850064e+02	 156.jpg	 132.jpg	 47	 46	 1	 u	 2	 1	 1376.05	 0.30	 0.30	 
BMI_bfr_103	 0	 1	 01	 2	 40	 1.880098e+02	 116.jpg	 109.jpg	 45	 41	 1	 u	 2	 1	 1410.31	 0.31	 0.39	 
BMI_bfr_103	 0	 1	 01	 2	 41	 1.920142e+02	 134.jpg	 157.jpg	 12	 16	 1	 i	 1	 0	 1141.06	 0.71	 0.69	 
BMI_bfr_103	 0	 1	 01	 2	 42	 1.970198e+02	 152.jpg	 129.jpg	 5	 57	 1	 u	 3	 1	 624.40	 0.82	 0.16	 
BMI_bfr_103	 0	 1	 01	 2	 43	 2.030099e+02	 130.jpg	 145.jpg	 6	 55	 1	 u	 4	 1	 698.36	 0.82	 0.18	 
BMI_bfr_103	 0	 1	 01	 2	 44	 2.070143e+02	 116.jpg	 151.jpg	 45	 40	 1	 i	 2	 0	 834.07	 0.31	 0.39	 
BMI_bfr_103	 0	 1	 01	 2	 45	 2.170089e+02	 139.jpg	 152.jpg	 56	 5	 0	 i	 3	 1	 1088.80	 0.18	 0.82	 
BMI_bfr_103	 0	 1	 01	 2	 46	 2.230156e+02	 135.jpg	 133.jpg	 54	 50	 0	 u	 2	 0	 1022.34	 0.21	 0.23	 
BMI_bfr_103	 0	 1	 01	 2	 47	 2.260189e+02	 160.jpg	 107.jpg	 13	 19	 1	 u	 1	 1	 707.85	 0.70	 0.65	 
BMI_bfr_103	 0	 1	 01	 2	 48	 2.300067e+02	 156.jpg	 135.jpg	 47	 54	 1	 i	 2	 0	 1175.29	 0.30	 0.21	 
BMI_bfr_103	 0	 1	 01	 2	 49	 2.390168e+02	 156.jpg	 148.jpg	 47	 49	 1	 i	 2	 0	 828.08	 0.30	 0.28	 
BMI_bfr_103	 0	 1	 01	 2	 50	 2.430213e+02	 156.jpg	 149.jpg	 47	 48	 1	 i	 2	 0	 1121.28	 0.30	 0.28	 
BMI_bfr_103	 0	 1	 01	 2	 51	 2.460079e+02	 121.jpg	 160.jpg	 8	 13	 0	 u	 1	 0	 756.08	 0.76	 0.70	 
BMI_bfr_103	 0	 1	 01	 2	 52	 2.510135e+02	 156.jpg	 124.jpg	 47	 43	 1	 i	 2	 0	 1038.19	 0.30	 0.36	 
BMI_bfr_103	 0	 1	 01	 2	 53	 2.560191e+02	 151.jpg	 119.jpg	 40	 39	 0	 u	 2	 0	 1106.52	 0.39	 0.40	 
BMI_bfr_103	 0	 1	 01	 2	 54	 2.600069e+02	 116.jpg	 132.jpg	 45	 46	 1	 x	 2	 999	 999000.00	 0.31	 0.30	 
BMI_bfr_103	 0	 1	 01	 2	 55	 2.640114e+02	 133.jpg	 132.jpg	 50	 46	 1	 u	 2	 1	 1327.12	 0.23	 0.30	 
BMI_bfr_103	 0	 1	 01	 2	 56	 2.690170e+02	 153.jpg	 130.jpg	 35	 6	 0	 i	 4	 1	 743.01	 0.47	 0.82	 
BMI_bfr_103	 0	 1	 01	 2	 57	 2.720204e+02	 150.jpg	 128.jpg	 11	 15	 0	 u	 1	 0	 833.51	 0.74	 0.69	 
BMI_bfr_103	 0	 1	 01	 2	 58	 2.800126e+02	 109.jpg	 159.jpg	 41	 52	 0	 i	 2	 1	 626.63	 0.39	 0.23	 
BMI_bfr_103	 0	 1	 01	 2	 59	 2.860193e+02	 149.jpg	 108.jpg	 48	 42	 0	 i	 2	 1	 998.92	 0.28	 0.39	 
BMI_bfr_103	 0	 1	 01	 2	 60	 2.960138e+02	 121.jpg	 143.jpg	 8	 18	 0	 u	 1	 0	 736.17	 0.76	 0.66	 
BMI_bfr_103	 0	 1	 01	 2	 61	 2.990172e+02	 134.jpg	 114.jpg	 12	 14	 1	 x	 1	 999	 999000.00	 0.71	 0.69	 
BMI_bfr_103	 0	 1	 01	 2	 62	 3.030217e+02	 151.jpg	 108.jpg	 40	 42	 0	 i	 2	 1	 602.32	 0.39	 0.39	 
BMI_bfr_103	 0	 1	 01	 2	 63	 3.060084e+02	 111.jpg	 129.jpg	 25	 57	 1	 u	 3	 1	 810.80	 0.58	 0.16	 
BMI_bfr_103	 0	 1	 01	 2	 64	 3.170207e+02	 147.jpg	 122.jpg	 38	 26	 0	 u	 4	 0	 959.01	 0.40	 0.56	 
BMI_bfr_103	 0	 1	 01	 2	 65	 3.230107e+02	 125.jpg	 108.jpg	 51	 42	 0	 i	 2	 1	 605.47	 0.23	 0.39	 
BMI_bfr_103	 0	 1	 01	 2	 66	 3.300185e+02	 158.jpg	 112.jpg	 58	 3	 0	 i	 4	 1	 629.20	 0.10	 0.85	 
BMI_bfr_103	 0	 1	 01	 2	 67	 3.350075e+02	 125.jpg	 116.jpg	 51	 45	 0	 u	 2	 0	 860.55	 0.23	 0.31	 
BMI_bfr_103	 0	 1	 01	 2	 68	 3.380108e+02	 107.jpg	 113.jpg	 19	 20	 0	 i	 1	 1	 883.59	 0.65	 0.63	 
BMI_bfr_103	 0	 1	 01	 2	 69	 3.420153e+02	 146.jpg	 127.jpg	 22	 21	 0	 i	 1	 1	 1266.78	 0.61	 0.63	 
BMI_bfr_103	 0	 1	 01	 2	 70	 3.460198e+02	 136.jpg	 135.jpg	 44	 54	 1	 i	 2	 0	 1244.98	 0.32	 0.21	 
BMI_bfr_103	 0	 1	 01	 2	 71	 3.500075e+02	 124.jpg	 138.jpg	 43	 53	 0	 u	 2	 0	 1104.87	 0.36	 0.21	 
BMI_bfr_103	 0	 1	 01	 2	 72	 3.540120e+02	 151.jpg	 156.jpg	 40	 47	 0	 u	 2	 0	 1251.82	 0.39	 0.30	 
BMI_bfr_103	 0	 1	 01	 2	 73	 3.580165e+02	 138.jpg	 132.jpg	 53	 46	 1	 x	 2	 999	 999000.00	 0.21	 0.30	 
BMI_bfr_103	 0	 1	 01	 2	 74	 3.620210e+02	 125.jpg	 133.jpg	 51	 50	 0	 u	 2	 0	 1354.46	 0.23	 0.23	 
BMI_bfr_103	 0	 1	 01	 2	 75	 3.660088e+02	 124.jpg	 133.jpg	 43	 50	 0	 u	 2	 0	 753.10	 0.36	 0.23	 
BMI_bfr_103	 0	 1	 01	 2	 76	 3.700133e+02	 125.jpg	 136.jpg	 51	 44	 0	 i	 2	 1	 877.55	 0.23	 0.32	 
BMI_bfr_103	 0	 1	 01	 2	 77	 3.740177e+02	 125.jpg	 138.jpg	 51	 53	 0	 u	 2	 0	 1002.02	 0.23	 0.21	 
BMI_bfr_103	 0	 1	 01	 2	 78	 3.780055e+02	 146.jpg	 154.jpg	 22	 7	 0	 i	 1	 1	 884.38	 0.61	 0.76	 
BMI_bfr_103	 0	 1	 01	 2	 79	 3.820100e+02	 117.jpg	 110.jpg	 4	 36	 1	 u	 3	 1	 930.11	 0.83	 0.46	 
BMI_bfr_103	 0	 1	 01	 2	 80	 3.860145e+02	 132.jpg	 136.jpg	 46	 44	 0	 i	 2	 1	 1189.56	 0.30	 0.32	 
