subjectID	 scanner	 order	 block	 run	 trial	 onsettime	 ImageLeft	 ImageRight	 bidIndexLeft	 bidIndexRight	 IsleftGo	 Response	 PairType	 Outcome	 RT	 bidLeft	 bidRight	 
BMI_bfr_103	 0	 1	 02	 2	 1	 2.018354e+00	 133.jpg	 125.jpg	 50	 51	 1	 x	 2	 999	 999000.00	 0.23	 0.23	 
BMI_bfr_103	 0	 1	 02	 2	 2	 7.007260e+00	 138.jpg	 148.jpg	 53	 49	 1	 i	 2	 0	 1158.75	 0.21	 0.28	 
BMI_bfr_103	 0	 1	 02	 2	 3	 1.501622e+01	 138.jpg	 125.jpg	 53	 51	 1	 x	 2	 999	 999000.00	 0.21	 0.23	 
BMI_bfr_103	 0	 1	 02	 2	 4	 1.801958e+01	 153.jpg	 112.jpg	 35	 3	 0	 i	 4	 1	 1306.92	 0.47	 0.85	 
BMI_bfr_103	 0	 1	 02	 2	 5	 2.501074e+01	 146.jpg	 128.jpg	 22	 15	 0	 x	 1	 999	 999000.00	 0.61	 0.69	 
BMI_bfr_103	 0	 1	 02	 2	 6	 2.801409e+01	 107.jpg	 140.jpg	 19	 10	 0	 i	 1	 1	 1156.61	 0.65	 0.74	 
BMI_bfr_103	 0	 1	 02	 2	 7	 3.900972e+01	 138.jpg	 132.jpg	 53	 46	 1	 i	 2	 0	 905.22	 0.21	 0.30	 
BMI_bfr_103	 0	 1	 02	 2	 8	 4.301419e+01	 108.jpg	 109.jpg	 42	 41	 1	 u	 2	 1	 872.17	 0.39	 0.39	 
BMI_bfr_103	 0	 1	 02	 2	 9	 4.701867e+01	 128.jpg	 121.jpg	 15	 8	 1	 i	 1	 0	 794.16	 0.69	 0.76	 
BMI_bfr_103	 0	 1	 02	 2	 10	 5.002204e+01	 137.jpg	 128.jpg	 9	 15	 0	 u	 1	 0	 1030.91	 0.74	 0.69	 
BMI_bfr_103	 0	 1	 02	 2	 11	 5.300870e+01	 125.jpg	 116.jpg	 51	 45	 0	 i	 2	 1	 800.64	 0.23	 0.31	 
BMI_bfr_103	 0	 1	 02	 2	 12	 5.801431e+01	 137.jpg	 154.jpg	 9	 7	 0	 u	 1	 0	 868.99	 0.74	 0.76	 
BMI_bfr_103	 0	 1	 02	 2	 13	 6.201878e+01	 140.jpg	 157.jpg	 10	 16	 1	 u	 1	 1	 1274.71	 0.74	 0.69	 
BMI_bfr_103	 0	 1	 02	 2	 14	 7.101216e+01	 135.jpg	 156.jpg	 54	 47	 0	 u	 2	 0	 752.98	 0.21	 0.30	 
BMI_bfr_103	 0	 1	 02	 2	 15	 7.401553e+01	 138.jpg	 135.jpg	 53	 54	 1	 i	 2	 0	 888.52	 0.21	 0.21	 
BMI_bfr_103	 0	 1	 02	 2	 16	 7.902113e+01	 138.jpg	 151.jpg	 53	 40	 1	 i	 2	 0	 833.14	 0.21	 0.39	 
BMI_bfr_103	 0	 1	 02	 2	 17	 8.501116e+01	 125.jpg	 136.jpg	 51	 44	 0	 i	 2	 1	 1424.66	 0.23	 0.32	 
BMI_bfr_103	 0	 1	 02	 2	 18	 8.801452e+01	 132.jpg	 119.jpg	 46	 39	 0	 x	 2	 999	 999000.00	 0.30	 0.40	 
BMI_bfr_103	 0	 1	 02	 2	 19	 9.302011e+01	 140.jpg	 150.jpg	 10	 11	 1	 u	 1	 1	 1482.32	 0.74	 0.74	 
BMI_bfr_103	 0	 1	 02	 2	 20	 9.700791e+01	 122.jpg	 158.jpg	 26	 58	 1	 u	 4	 1	 1252.17	 0.56	 0.10	 
BMI_bfr_103	 0	 1	 02	 2	 21	 1.020135e+02	 149.jpg	 108.jpg	 48	 42	 0	 i	 2	 1	 859.28	 0.28	 0.39	 
BMI_bfr_103	 0	 1	 02	 2	 22	 1.070191e+02	 129.jpg	 111.jpg	 57	 25	 0	 u	 3	 0	 1186.46	 0.16	 0.58	 
BMI_bfr_103	 0	 1	 02	 2	 23	 1.100058e+02	 119.jpg	 151.jpg	 39	 40	 1	 i	 2	 0	 1316.17	 0.40	 0.39	 
BMI_bfr_103	 0	 1	 02	 2	 24	 1.130091e+02	 116.jpg	 151.jpg	 45	 40	 1	 i	 2	 0	 720.40	 0.31	 0.39	 
BMI_bfr_103	 0	 1	 02	 2	 25	 1.250059e+02	 121.jpg	 154.jpg	 8	 7	 0	 i	 1	 1	 1279.24	 0.76	 0.76	 
BMI_bfr_103	 0	 1	 02	 2	 26	 1.290104e+02	 150.jpg	 143.jpg	 11	 18	 0	 u	 1	 0	 1223.69	 0.74	 0.66	 
BMI_bfr_103	 0	 1	 02	 2	 27	 1.320137e+02	 112.jpg	 145.jpg	 3	 55	 1	 u	 4	 1	 1066.72	 0.85	 0.18	 
BMI_bfr_103	 0	 1	 02	 2	 28	 1.390216e+02	 104.jpg	 111.jpg	 37	 25	 0	 u	 3	 0	 1259.20	 0.42	 0.58	 
BMI_bfr_103	 0	 1	 02	 2	 29	 1.420082e+02	 160.jpg	 121.jpg	 13	 8	 1	 u	 1	 1	 1231.47	 0.70	 0.76	 
BMI_bfr_103	 0	 1	 02	 2	 30	 1.490161e+02	 137.jpg	 140.jpg	 9	 10	 0	 u	 1	 0	 1153.88	 0.74	 0.74	 
BMI_bfr_103	 0	 1	 02	 2	 31	 1.540217e+02	 139.jpg	 117.jpg	 56	 4	 0	 i	 3	 1	 558.49	 0.18	 0.83	 
BMI_bfr_103	 0	 1	 02	 2	 32	 1.580094e+02	 125.jpg	 119.jpg	 51	 39	 0	 i	 2	 1	 1363.41	 0.23	 0.40	 
BMI_bfr_103	 0	 1	 02	 2	 33	 1.630150e+02	 124.jpg	 159.jpg	 43	 52	 0	 u	 2	 0	 621.78	 0.36	 0.23	 
BMI_bfr_103	 0	 1	 02	 2	 34	 1.690218e+02	 146.jpg	 154.jpg	 22	 7	 0	 i	 1	 1	 757.83	 0.61	 0.76	 
BMI_bfr_103	 0	 1	 02	 2	 35	 1.730096e+02	 114.jpg	 140.jpg	 14	 10	 0	 i	 1	 1	 1281.54	 0.69	 0.74	 
BMI_bfr_103	 0	 1	 02	 2	 36	 1.760129e+02	 122.jpg	 147.jpg	 26	 38	 1	 u	 4	 1	 685.78	 0.56	 0.40	 
BMI_bfr_103	 0	 1	 02	 2	 37	 1.790163e+02	 119.jpg	 124.jpg	 39	 43	 1	 i	 2	 0	 753.81	 0.40	 0.36	 
BMI_bfr_103	 0	 1	 02	 2	 38	 1.820196e+02	 105.jpg	 139.jpg	 24	 56	 1	 u	 3	 1	 934.28	 0.60	 0.18	 
BMI_bfr_103	 0	 1	 02	 2	 39	 1.860074e+02	 105.jpg	 110.jpg	 24	 36	 1	 i	 3	 0	 839.27	 0.60	 0.46	 
BMI_bfr_103	 0	 1	 02	 2	 40	 1.900119e+02	 128.jpg	 155.jpg	 15	 17	 1	 u	 1	 1	 761.19	 0.69	 0.66	 
BMI_bfr_103	 0	 1	 02	 2	 41	 1.960186e+02	 157.jpg	 113.jpg	 16	 20	 0	 i	 1	 1	 930.95	 0.69	 0.63	 
BMI_bfr_103	 0	 1	 02	 2	 42	 2.050120e+02	 109.jpg	 133.jpg	 41	 50	 0	 i	 2	 1	 926.73	 0.39	 0.23	 
BMI_bfr_103	 0	 1	 02	 2	 43	 2.080154e+02	 113.jpg	 121.jpg	 20	 8	 1	 u	 1	 1	 1399.78	 0.63	 0.76	 
BMI_bfr_103	 0	 1	 02	 2	 44	 2.120198e+02	 136.jpg	 135.jpg	 44	 54	 1	 i	 2	 0	 1299.21	 0.32	 0.21	 
BMI_bfr_103	 0	 1	 02	 2	 45	 2.170087e+02	 108.jpg	 132.jpg	 42	 46	 1	 u	 2	 1	 664.30	 0.39	 0.30	 
BMI_bfr_103	 0	 1	 02	 2	 46	 2.200121e+02	 160.jpg	 107.jpg	 13	 19	 1	 x	 1	 999	 999000.00	 0.70	 0.65	 
BMI_bfr_103	 0	 1	 02	 2	 47	 2.240166e+02	 155.jpg	 113.jpg	 17	 20	 0	 i	 1	 1	 1340.57	 0.66	 0.63	 
BMI_bfr_103	 0	 1	 02	 2	 48	 2.340111e+02	 159.jpg	 135.jpg	 52	 54	 1	 i	 2	 0	 1032.71	 0.23	 0.21	 
BMI_bfr_103	 0	 1	 02	 2	 49	 2.370144e+02	 140.jpg	 155.jpg	 10	 17	 1	 u	 1	 1	 1066.99	 0.74	 0.66	 
BMI_bfr_103	 0	 1	 02	 2	 50	 2.470090e+02	 156.jpg	 149.jpg	 47	 48	 1	 x	 2	 999	 999000.00	 0.30	 0.28	 
BMI_bfr_103	 0	 1	 02	 2	 51	 2.520146e+02	 150.jpg	 113.jpg	 11	 20	 0	 x	 1	 999	 999000.00	 0.74	 0.63	 
BMI_bfr_103	 0	 1	 02	 2	 52	 2.570202e+02	 125.jpg	 108.jpg	 51	 42	 0	 x	 2	 999	 999000.00	 0.23	 0.39	 
BMI_bfr_103	 0	 1	 02	 2	 53	 2.620091e+02	 107.jpg	 128.jpg	 19	 15	 0	 x	 1	 999	 999000.00	 0.65	 0.69	 
BMI_bfr_103	 0	 1	 02	 2	 54	 2.650124e+02	 117.jpg	 110.jpg	 4	 36	 1	 x	 3	 999	 999000.00	 0.83	 0.46	 
BMI_bfr_103	 0	 1	 02	 2	 55	 2.690169e+02	 122.jpg	 145.jpg	 26	 55	 1	 x	 4	 999	 999000.00	 0.56	 0.18	 
BMI_bfr_103	 0	 1	 02	 2	 56	 2.770092e+02	 155.jpg	 143.jpg	 17	 18	 0	 x	 1	 999	 999000.00	 0.66	 0.66	 
BMI_bfr_103	 0	 1	 02	 2	 57	 2.810136e+02	 148.jpg	 133.jpg	 49	 50	 0	 x	 2	 999	 999000.00	 0.28	 0.23	 
BMI_bfr_103	 0	 1	 02	 2	 58	 2.840170e+02	 126.jpg	 158.jpg	 23	 58	 1	 x	 4	 999	 999000.00	 0.60	 0.10	 
BMI_bfr_103	 0	 1	 02	 2	 59	 2.870204e+02	 133.jpg	 124.jpg	 50	 43	 1	 x	 2	 999	 999000.00	 0.23	 0.36	 
BMI_bfr_103	 0	 1	 02	 2	 60	 3.000182e+02	 146.jpg	 134.jpg	 22	 12	 0	 x	 1	 999	 999000.00	 0.61	 0.71	 
BMI_bfr_103	 0	 1	 02	 2	 61	 3.030216e+02	 160.jpg	 137.jpg	 13	 9	 1	 i	 1	 0	 627.84	 0.70	 0.74	 
BMI_bfr_103	 0	 1	 02	 2	 62	 3.070094e+02	 109.jpg	 136.jpg	 41	 44	 0	 i	 2	 1	 712.71	 0.39	 0.32	 
BMI_bfr_103	 0	 1	 02	 2	 63	 3.120150e+02	 159.jpg	 148.jpg	 52	 49	 1	 i	 2	 0	 792.35	 0.23	 0.28	 
BMI_bfr_103	 0	 1	 02	 2	 64	 3.210084e+02	 157.jpg	 127.jpg	 16	 21	 0	 i	 1	 1	 1204.38	 0.69	 0.63	 
BMI_bfr_103	 0	 1	 02	 2	 65	 3.240117e+02	 125.jpg	 156.jpg	 51	 47	 0	 u	 2	 0	 1339.99	 0.23	 0.30	 
BMI_bfr_103	 0	 1	 02	 2	 66	 3.270151e+02	 110.jpg	 152.jpg	 36	 5	 0	 i	 3	 1	 710.43	 0.46	 0.82	 
BMI_bfr_103	 0	 1	 02	 2	 67	 3.330051e+02	 126.jpg	 147.jpg	 23	 38	 1	 u	 4	 1	 1020.67	 0.60	 0.40	 
BMI_bfr_103	 0	 1	 02	 2	 68	 3.380107e+02	 119.jpg	 135.jpg	 39	 54	 1	 i	 2	 0	 1066.55	 0.40	 0.21	 
BMI_bfr_103	 0	 1	 02	 2	 69	 3.420152e+02	 128.jpg	 150.jpg	 15	 11	 1	 u	 1	 1	 639.75	 0.69	 0.74	 
BMI_bfr_103	 0	 1	 02	 2	 70	 3.460196e+02	 133.jpg	 132.jpg	 50	 46	 1	 i	 2	 0	 944.25	 0.23	 0.30	 
BMI_bfr_103	 0	 1	 02	 2	 71	 3.500074e+02	 150.jpg	 154.jpg	 11	 7	 0	 i	 1	 1	 567.83	 0.74	 0.76	 
BMI_bfr_103	 0	 1	 02	 2	 72	 3.540119e+02	 108.jpg	 135.jpg	 42	 54	 1	 u	 2	 1	 692.30	 0.39	 0.21	 
BMI_bfr_103	 0	 1	 02	 2	 73	 3.580164e+02	 107.jpg	 127.jpg	 19	 21	 0	 i	 1	 1	 670.49	 0.65	 0.63	 
BMI_bfr_103	 0	 1	 02	 2	 74	 3.620209e+02	 160.jpg	 150.jpg	 13	 11	 1	 u	 1	 1	 603.70	 0.70	 0.74	 
BMI_bfr_103	 0	 1	 02	 2	 75	 3.660087e+02	 107.jpg	 154.jpg	 19	 7	 0	 i	 1	 1	 711.10	 0.65	 0.76	 
BMI_bfr_103	 0	 1	 02	 2	 76	 3.700131e+02	 135.jpg	 133.jpg	 54	 50	 0	 u	 2	 0	 633.07	 0.21	 0.23	 
BMI_bfr_103	 0	 1	 02	 2	 77	 3.740176e+02	 117.jpg	 104.jpg	 4	 37	 1	 u	 3	 1	 521.24	 0.83	 0.42	 
BMI_bfr_103	 0	 1	 02	 2	 78	 3.780054e+02	 153.jpg	 122.jpg	 35	 26	 0	 i	 4	 1	 1067.42	 0.47	 0.56	 
BMI_bfr_103	 0	 1	 02	 2	 79	 3.820099e+02	 114.jpg	 160.jpg	 14	 13	 0	 u	 1	 0	 921.84	 0.69	 0.70	 
BMI_bfr_103	 0	 1	 02	 2	 80	 3.860144e+02	 146.jpg	 140.jpg	 22	 10	 0	 i	 1	 1	 787.56	 0.61	 0.74	 
